submission_id,age,comments,education,emphasis,experiment_duration,experiment_end_time,experiment_start_time,fragmentType_Acceptability,gender,languages,modality,prolific_pid,prolific_session_id,prolific_study_id,response,responseTime,trial_number,trial_type
18,24,,Bachelor,without,735632,1690012157714,1690011422082,D,weiblich,Deutsch,written,,,,7,25062,1,Filler
18,24,,Bachelor,without,735632,1690012157714,1690011422082,L,weiblich,Deutsch,written,,,,7,13301,2,Critical
18,24,,Bachelor,without,735632,1690012157714,1690011422082,F,weiblich,Deutsch,written,,,,7,13783,3,Critical
18,24,,Bachelor,without,735632,1690012157714,1690011422082,A,weiblich,Deutsch,written,,,,7,9834,4,Filler
18,24,,Bachelor,with,735632,1690012157714,1690011422082,L,weiblich,Deutsch,written,,,,7,15186,5,Critical
18,24,,Bachelor,without,735632,1690012157714,1690011422082,E,weiblich,Deutsch,written,,,,1,12917,6,Filler
18,24,,Bachelor,without,735632,1690012157714,1690011422082,A,weiblich,Deutsch,written,,,,3,11251,7,Filler
18,24,,Bachelor,with,735632,1690012157714,1690011422082,F,weiblich,Deutsch,written,,,,7,11984,8,Critical
18,24,,Bachelor,without,735632,1690012157714,1690011422082,A,weiblich,Deutsch,written,,,,7,5767,9,Filler
18,24,,Bachelor,without,735632,1690012157714,1690011422082,F,weiblich,Deutsch,written,,,,7,6515,10,Critical
18,24,,Bachelor,without,735632,1690012157714,1690011422082,A,weiblich,Deutsch,written,,,,7,7186,11,Filler
18,24,,Bachelor,without,735632,1690012157714,1690011422082,E,weiblich,Deutsch,written,,,,1,10532,12,Filler
18,24,,Bachelor,without,735632,1690012157714,1690011422082,D,weiblich,Deutsch,written,,,,5,26836,13,Filler
18,24,,Bachelor,without,735632,1690012157714,1690011422082,C,weiblich,Deutsch,written,,,,6,9935,14,Filler
18,24,,Bachelor,without,735632,1690012157714,1690011422082,L,weiblich,Deutsch,written,,,,7,12918,15,Critical
18,24,,Bachelor,without,735632,1690012157714,1690011422082,A,weiblich,Deutsch,written,,,,7,7084,16,Filler
18,24,,Bachelor,without,735632,1690012157714,1690011422082,L,weiblich,Deutsch,written,,,,7,4818,17,Critical
18,24,,Bachelor,without,735632,1690012157714,1690011422082,B,weiblich,Deutsch,written,,,,4,8545,18,Filler
18,24,,Bachelor,with,735632,1690012157714,1690011422082,L,weiblich,Deutsch,written,,,,7,8420,19,Critical
18,24,,Bachelor,with,735632,1690012157714,1690011422082,F,weiblich,Deutsch,written,,,,7,5753,20,Critical
18,24,,Bachelor,without,735632,1690012157714,1690011422082,C,weiblich,Deutsch,written,,,,4,10032,21,Filler
18,24,,Bachelor,with,735632,1690012157714,1690011422082,L,weiblich,Deutsch,written,,,,7,5683,22,Critical
18,24,,Bachelor,with,735632,1690012157714,1690011422082,L,weiblich,Deutsch,written,,,,7,6599,23,Critical
18,24,,Bachelor,without,735632,1690012157714,1690011422082,C,weiblich,Deutsch,written,,,,3,17835,24,Filler
18,24,,Bachelor,with,735632,1690012157714,1690011422082,F,weiblich,Deutsch,written,,,,7,6752,25,Critical
18,24,,Bachelor,without,735632,1690012157714,1690011422082,D,weiblich,Deutsch,written,,,,1,13682,26,Filler
18,24,,Bachelor,without,735632,1690012157714,1690011422082,C,weiblich,Deutsch,written,,,,3,10467,27,Filler
18,24,,Bachelor,without,735632,1690012157714,1690011422082,F,weiblich,Deutsch,written,,,,7,6801,28,Critical
18,24,,Bachelor,without,735632,1690012157714,1690011422082,L,weiblich,Deutsch,written,,,,7,5601,29,Critical
18,24,,Bachelor,with,735632,1690012157714,1690011422082,L,weiblich,Deutsch,written,,,,7,8417,30,Critical
18,24,,Bachelor,without,735632,1690012157714,1690011422082,L,weiblich,Deutsch,written,,,,7,4582,31,Critical
18,24,,Bachelor,without,735632,1690012157714,1690011422082,F,weiblich,Deutsch,written,,,,7,4867,32,Critical
18,24,,Bachelor,with,735632,1690012157714,1690011422082,F,weiblich,Deutsch,written,,,,7,4650,33,Critical
18,24,,Bachelor,with,735632,1690012157714,1690011422082,F,weiblich,Deutsch,written,,,,7,6585,34,Critical
18,24,,Bachelor,without,735632,1690012157714,1690011422082,C,weiblich,Deutsch,written,,,,2,16649,35,Filler
18,24,,Bachelor,without,735632,1690012157714,1690011422082,B,weiblich,Deutsch,written,,,,6,6768,36,Filler
18,24,,Bachelor,without,735632,1690012157714,1690011422082,D,weiblich,Deutsch,written,,,,2,8116,37,Filler
18,24,,Bachelor,without,735632,1690012157714,1690011422082,B,weiblich,Deutsch,written,,,,2,12984,38,Filler
18,24,,Bachelor,without,735632,1690012157714,1690011422082,F,weiblich,Deutsch,written,,,,7,8066,39,Critical
18,24,,Bachelor,with,735632,1690012157714,1690011422082,L,weiblich,Deutsch,written,,,,7,6267,40,Critical
18,24,,Bachelor,without,735632,1690012157714,1690011422082,L,weiblich,Deutsch,written,,,,7,3716,41,Critical
18,24,,Bachelor,without,735632,1690012157714,1690011422082,L,weiblich,Deutsch,written,,,,7,3951,42,Critical
18,24,,Bachelor,with,735632,1690012157714,1690011422082,F,weiblich,Deutsch,written,,,,7,5366,43,Critical
18,24,,Bachelor,without,735632,1690012157714,1690011422082,E,weiblich,Deutsch,written,,,,3,8851,44,Filler
18,24,,Bachelor,without,735632,1690012157714,1690011422082,E,weiblich,Deutsch,written,,,,2,10617,45,Filler
18,24,,Bachelor,without,735632,1690012157714,1690011422082,D,weiblich,Deutsch,written,,,,3,11885,46,Filler
18,24,,Bachelor,without,735632,1690012157714,1690011422082,D,weiblich,Deutsch,written,,,,6,23619,47,Filler
18,24,,Bachelor,without,735632,1690012157714,1690011422082,F,weiblich,Deutsch,written,,,,7,5300,48,Critical
18,24,,Bachelor,without,735632,1690012157714,1690011422082,E,weiblich,Deutsch,written,,,,3,5117,49,Filler
18,24,,Bachelor,without,735632,1690012157714,1690011422082,B,weiblich,Deutsch,written,,,,6,17087,50,Filler
18,24,,Bachelor,without,735632,1690012157714,1690011422082,C,weiblich,Deutsch,written,,,,2,26167,51,Filler
18,24,,Bachelor,without,735632,1690012157714,1690011422082,F,weiblich,Deutsch,written,,,,7,4699,52,Critical
18,24,,Bachelor,without,735632,1690012157714,1690011422082,B,weiblich,Deutsch,written,,,,6,14235,53,Filler
18,24,,Bachelor,with,735632,1690012157714,1690011422082,F,weiblich,Deutsch,written,,,,7,5217,54,Critical
18,24,,Bachelor,without,735632,1690012157714,1690011422082,B,weiblich,Deutsch,written,,,,7,10268,55,Filler
18,24,,Bachelor,with,735632,1690012157714,1690011422082,L,weiblich,Deutsch,written,,,,7,12217,56,Critical
19,21,,Abitur,without,831456,1690212870968,1690212039512,A,männlich,Deutsch,written,5bb8a14e002f190001a30ec7,64be96bd92df55f996900995,64ba4c8d312ce994ea1f9971,6,27556,1,Filler
19,21,,Abitur,with,831456,1690212870968,1690212039512,L,männlich,Deutsch,written,5bb8a14e002f190001a30ec7,64be96bd92df55f996900995,64ba4c8d312ce994ea1f9971,5,36080,2,Critical
19,21,,Abitur,without,831456,1690212870968,1690212039512,C,männlich,Deutsch,written,5bb8a14e002f190001a30ec7,64be96bd92df55f996900995,64ba4c8d312ce994ea1f9971,3,21029,3,Filler
19,21,,Abitur,with,831456,1690212870968,1690212039512,F,männlich,Deutsch,written,5bb8a14e002f190001a30ec7,64be96bd92df55f996900995,64ba4c8d312ce994ea1f9971,5,15071,4,Critical
19,21,,Abitur,without,831456,1690212870968,1690212039512,E,männlich,Deutsch,written,5bb8a14e002f190001a30ec7,64be96bd92df55f996900995,64ba4c8d312ce994ea1f9971,4,6410,5,Filler
19,21,,Abitur,without,831456,1690212870968,1690212039512,B,männlich,Deutsch,written,5bb8a14e002f190001a30ec7,64be96bd92df55f996900995,64ba4c8d312ce994ea1f9971,3,9030,6,Filler
19,21,,Abitur,with,831456,1690212870968,1690212039512,L,männlich,Deutsch,written,5bb8a14e002f190001a30ec7,64be96bd92df55f996900995,64ba4c8d312ce994ea1f9971,6,4976,7,Critical
19,21,,Abitur,without,831456,1690212870968,1690212039512,D,männlich,Deutsch,written,5bb8a14e002f190001a30ec7,64be96bd92df55f996900995,64ba4c8d312ce994ea1f9971,5,25981,8,Filler
19,21,,Abitur,without,831456,1690212870968,1690212039512,D,männlich,Deutsch,written,5bb8a14e002f190001a30ec7,64be96bd92df55f996900995,64ba4c8d312ce994ea1f9971,5,9109,9,Filler
19,21,,Abitur,without,831456,1690212870968,1690212039512,F,männlich,Deutsch,written,5bb8a14e002f190001a30ec7,64be96bd92df55f996900995,64ba4c8d312ce994ea1f9971,7,10052,10,Critical
19,21,,Abitur,without,831456,1690212870968,1690212039512,A,männlich,Deutsch,written,5bb8a14e002f190001a30ec7,64be96bd92df55f996900995,64ba4c8d312ce994ea1f9971,7,10688,11,Filler
19,21,,Abitur,without,831456,1690212870968,1690212039512,A,männlich,Deutsch,written,5bb8a14e002f190001a30ec7,64be96bd92df55f996900995,64ba4c8d312ce994ea1f9971,7,7604,12,Filler
19,21,,Abitur,without,831456,1690212870968,1690212039512,F,männlich,Deutsch,written,5bb8a14e002f190001a30ec7,64be96bd92df55f996900995,64ba4c8d312ce994ea1f9971,6,24853,13,Critical
19,21,,Abitur,without,831456,1690212870968,1690212039512,B,männlich,Deutsch,written,5bb8a14e002f190001a30ec7,64be96bd92df55f996900995,64ba4c8d312ce994ea1f9971,7,22605,14,Filler
19,21,,Abitur,without,831456,1690212870968,1690212039512,E,männlich,Deutsch,written,5bb8a14e002f190001a30ec7,64be96bd92df55f996900995,64ba4c8d312ce994ea1f9971,3,19110,15,Filler
19,21,,Abitur,without,831456,1690212870968,1690212039512,C,männlich,Deutsch,written,5bb8a14e002f190001a30ec7,64be96bd92df55f996900995,64ba4c8d312ce994ea1f9971,2,19385,16,Filler
19,21,,Abitur,without,831456,1690212870968,1690212039512,L,männlich,Deutsch,written,5bb8a14e002f190001a30ec7,64be96bd92df55f996900995,64ba4c8d312ce994ea1f9971,6,8345,17,Critical
19,21,,Abitur,with,831456,1690212870968,1690212039512,L,männlich,Deutsch,written,5bb8a14e002f190001a30ec7,64be96bd92df55f996900995,64ba4c8d312ce994ea1f9971,6,8671,18,Critical
19,21,,Abitur,without,831456,1690212870968,1690212039512,A,männlich,Deutsch,written,5bb8a14e002f190001a30ec7,64be96bd92df55f996900995,64ba4c8d312ce994ea1f9971,7,7282,19,Filler
19,21,,Abitur,with,831456,1690212870968,1690212039512,L,männlich,Deutsch,written,5bb8a14e002f190001a30ec7,64be96bd92df55f996900995,64ba4c8d312ce994ea1f9971,6,5995,20,Critical
19,21,,Abitur,without,831456,1690212870968,1690212039512,B,männlich,Deutsch,written,5bb8a14e002f190001a30ec7,64be96bd92df55f996900995,64ba4c8d312ce994ea1f9971,6,11546,21,Filler
19,21,,Abitur,without,831456,1690212870968,1690212039512,L,männlich,Deutsch,written,5bb8a14e002f190001a30ec7,64be96bd92df55f996900995,64ba4c8d312ce994ea1f9971,7,5913,22,Critical
19,21,,Abitur,with,831456,1690212870968,1690212039512,F,männlich,Deutsch,written,5bb8a14e002f190001a30ec7,64be96bd92df55f996900995,64ba4c8d312ce994ea1f9971,7,10422,23,Critical
19,21,,Abitur,without,831456,1690212870968,1690212039512,C,männlich,Deutsch,written,5bb8a14e002f190001a30ec7,64be96bd92df55f996900995,64ba4c8d312ce994ea1f9971,5,6613,24,Filler
19,21,,Abitur,without,831456,1690212870968,1690212039512,L,männlich,Deutsch,written,5bb8a14e002f190001a30ec7,64be96bd92df55f996900995,64ba4c8d312ce994ea1f9971,6,9831,25,Critical
19,21,,Abitur,without,831456,1690212870968,1690212039512,F,männlich,Deutsch,written,5bb8a14e002f190001a30ec7,64be96bd92df55f996900995,64ba4c8d312ce994ea1f9971,7,7251,26,Critical
19,21,,Abitur,with,831456,1690212870968,1690212039512,F,männlich,Deutsch,written,5bb8a14e002f190001a30ec7,64be96bd92df55f996900995,64ba4c8d312ce994ea1f9971,7,8116,27,Critical
19,21,,Abitur,without,831456,1690212870968,1690212039512,C,männlich,Deutsch,written,5bb8a14e002f190001a30ec7,64be96bd92df55f996900995,64ba4c8d312ce994ea1f9971,4,11977,28,Filler
19,21,,Abitur,with,831456,1690212870968,1690212039512,L,männlich,Deutsch,written,5bb8a14e002f190001a30ec7,64be96bd92df55f996900995,64ba4c8d312ce994ea1f9971,6,15020,29,Critical
19,21,,Abitur,without,831456,1690212870968,1690212039512,F,männlich,Deutsch,written,5bb8a14e002f190001a30ec7,64be96bd92df55f996900995,64ba4c8d312ce994ea1f9971,7,9319,30,Critical
19,21,,Abitur,without,831456,1690212870968,1690212039512,D,männlich,Deutsch,written,5bb8a14e002f190001a30ec7,64be96bd92df55f996900995,64ba4c8d312ce994ea1f9971,1,8559,31,Filler
19,21,,Abitur,without,831456,1690212870968,1690212039512,E,männlich,Deutsch,written,5bb8a14e002f190001a30ec7,64be96bd92df55f996900995,64ba4c8d312ce994ea1f9971,5,13158,32,Filler
19,21,,Abitur,without,831456,1690212870968,1690212039512,D,männlich,Deutsch,written,5bb8a14e002f190001a30ec7,64be96bd92df55f996900995,64ba4c8d312ce994ea1f9971,3,7770,33,Filler
19,21,,Abitur,with,831456,1690212870968,1690212039512,L,männlich,Deutsch,written,5bb8a14e002f190001a30ec7,64be96bd92df55f996900995,64ba4c8d312ce994ea1f9971,6,13071,34,Critical
19,21,,Abitur,without,831456,1690212870968,1690212039512,L,männlich,Deutsch,written,5bb8a14e002f190001a30ec7,64be96bd92df55f996900995,64ba4c8d312ce994ea1f9971,7,9004,35,Critical
19,21,,Abitur,without,831456,1690212870968,1690212039512,E,männlich,Deutsch,written,5bb8a14e002f190001a30ec7,64be96bd92df55f996900995,64ba4c8d312ce994ea1f9971,5,6608,36,Filler
19,21,,Abitur,without,831456,1690212870968,1690212039512,L,männlich,Deutsch,written,5bb8a14e002f190001a30ec7,64be96bd92df55f996900995,64ba4c8d312ce994ea1f9971,6,12457,37,Critical
19,21,,Abitur,with,831456,1690212870968,1690212039512,F,männlich,Deutsch,written,5bb8a14e002f190001a30ec7,64be96bd92df55f996900995,64ba4c8d312ce994ea1f9971,7,8713,38,Critical
19,21,,Abitur,without,831456,1690212870968,1690212039512,B,männlich,Deutsch,written,5bb8a14e002f190001a30ec7,64be96bd92df55f996900995,64ba4c8d312ce994ea1f9971,5,9793,39,Filler
19,21,,Abitur,without,831456,1690212870968,1690212039512,B,männlich,Deutsch,written,5bb8a14e002f190001a30ec7,64be96bd92df55f996900995,64ba4c8d312ce994ea1f9971,4,6937,40,Filler
19,21,,Abitur,without,831456,1690212870968,1690212039512,C,männlich,Deutsch,written,5bb8a14e002f190001a30ec7,64be96bd92df55f996900995,64ba4c8d312ce994ea1f9971,3,10772,41,Filler
19,21,,Abitur,without,831456,1690212870968,1690212039512,L,männlich,Deutsch,written,5bb8a14e002f190001a30ec7,64be96bd92df55f996900995,64ba4c8d312ce994ea1f9971,5,6675,42,Critical
19,21,,Abitur,without,831456,1690212870968,1690212039512,C,männlich,Deutsch,written,5bb8a14e002f190001a30ec7,64be96bd92df55f996900995,64ba4c8d312ce994ea1f9971,3,7894,43,Filler
19,21,,Abitur,without,831456,1690212870968,1690212039512,F,männlich,Deutsch,written,5bb8a14e002f190001a30ec7,64be96bd92df55f996900995,64ba4c8d312ce994ea1f9971,5,13066,44,Critical
19,21,,Abitur,without,831456,1690212870968,1690212039512,D,männlich,Deutsch,written,5bb8a14e002f190001a30ec7,64be96bd92df55f996900995,64ba4c8d312ce994ea1f9971,6,12373,45,Filler
19,21,,Abitur,with,831456,1690212870968,1690212039512,F,männlich,Deutsch,written,5bb8a14e002f190001a30ec7,64be96bd92df55f996900995,64ba4c8d312ce994ea1f9971,5,21274,46,Critical
19,21,,Abitur,with,831456,1690212870968,1690212039512,F,männlich,Deutsch,written,5bb8a14e002f190001a30ec7,64be96bd92df55f996900995,64ba4c8d312ce994ea1f9971,6,24260,47,Critical
19,21,,Abitur,without,831456,1690212870968,1690212039512,D,männlich,Deutsch,written,5bb8a14e002f190001a30ec7,64be96bd92df55f996900995,64ba4c8d312ce994ea1f9971,4,10358,48,Filler
19,21,,Abitur,without,831456,1690212870968,1690212039512,B,männlich,Deutsch,written,5bb8a14e002f190001a30ec7,64be96bd92df55f996900995,64ba4c8d312ce994ea1f9971,2,7815,49,Filler
19,21,,Abitur,without,831456,1690212870968,1690212039512,F,männlich,Deutsch,written,5bb8a14e002f190001a30ec7,64be96bd92df55f996900995,64ba4c8d312ce994ea1f9971,5,36564,50,Critical
19,21,,Abitur,with,831456,1690212870968,1690212039512,L,männlich,Deutsch,written,5bb8a14e002f190001a30ec7,64be96bd92df55f996900995,64ba4c8d312ce994ea1f9971,5,10973,51,Critical
19,21,,Abitur,without,831456,1690212870968,1690212039512,A,männlich,Deutsch,written,5bb8a14e002f190001a30ec7,64be96bd92df55f996900995,64ba4c8d312ce994ea1f9971,6,5301,52,Filler
19,21,,Abitur,without,831456,1690212870968,1690212039512,F,männlich,Deutsch,written,5bb8a14e002f190001a30ec7,64be96bd92df55f996900995,64ba4c8d312ce994ea1f9971,6,20099,53,Critical
19,21,,Abitur,without,831456,1690212870968,1690212039512,E,männlich,Deutsch,written,5bb8a14e002f190001a30ec7,64be96bd92df55f996900995,64ba4c8d312ce994ea1f9971,2,13096,54,Filler
19,21,,Abitur,without,831456,1690212870968,1690212039512,L,männlich,Deutsch,written,5bb8a14e002f190001a30ec7,64be96bd92df55f996900995,64ba4c8d312ce994ea1f9971,5,13146,55,Critical
19,21,,Abitur,with,831456,1690212870968,1690212039512,F,männlich,Deutsch,written,5bb8a14e002f190001a30ec7,64be96bd92df55f996900995,64ba4c8d312ce994ea1f9971,6,3874,56,Critical
20,34,,Bachelor,with,616454,1690213257998,1690212641544,B,weiblich,Deutsch,auditory,57cd94d892da98000100c395,64be98ff5060d1e91e11560d,64ba4c8d312ce994ea1f9971,5,21151,1,Filler
20,34,,Bachelor,with,616454,1690213257998,1690212641544,C,weiblich,Deutsch,auditory,57cd94d892da98000100c395,64be98ff5060d1e91e11560d,64ba4c8d312ce994ea1f9971,3,13677,2,Filler
20,34,,Bachelor,with,616454,1690213257998,1690212641544,D,weiblich,Deutsch,auditory,57cd94d892da98000100c395,64be98ff5060d1e91e11560d,64ba4c8d312ce994ea1f9971,3,12604,3,Filler
20,34,,Bachelor,with,616454,1690213257998,1690212641544,L,weiblich,Deutsch,auditory,57cd94d892da98000100c395,64be98ff5060d1e91e11560d,64ba4c8d312ce994ea1f9971,7,10557,4,Critical
20,34,,Bachelor,with,616454,1690213257998,1690212641544,C,weiblich,Deutsch,auditory,57cd94d892da98000100c395,64be98ff5060d1e91e11560d,64ba4c8d312ce994ea1f9971,5,13306,5,Filler
20,34,,Bachelor,with,616454,1690213257998,1690212641544,C,weiblich,Deutsch,auditory,57cd94d892da98000100c395,64be98ff5060d1e91e11560d,64ba4c8d312ce994ea1f9971,3,13848,6,Filler
20,34,,Bachelor,with,616454,1690213257998,1690212641544,A,weiblich,Deutsch,auditory,57cd94d892da98000100c395,64be98ff5060d1e91e11560d,64ba4c8d312ce994ea1f9971,7,8550,7,Filler
20,34,,Bachelor,without,616454,1690213257998,1690212641544,L,weiblich,Deutsch,auditory,57cd94d892da98000100c395,64be98ff5060d1e91e11560d,64ba4c8d312ce994ea1f9971,7,8258,8,Critical
20,34,,Bachelor,without,616454,1690213257998,1690212641544,F,weiblich,Deutsch,auditory,57cd94d892da98000100c395,64be98ff5060d1e91e11560d,64ba4c8d312ce994ea1f9971,7,9157,9,Critical
20,34,,Bachelor,without,616454,1690213257998,1690212641544,F,weiblich,Deutsch,auditory,57cd94d892da98000100c395,64be98ff5060d1e91e11560d,64ba4c8d312ce994ea1f9971,7,9834,10,Critical
20,34,,Bachelor,with,616454,1690213257998,1690212641544,F,weiblich,Deutsch,auditory,57cd94d892da98000100c395,64be98ff5060d1e91e11560d,64ba4c8d312ce994ea1f9971,7,8724,11,Critical
20,34,,Bachelor,with,616454,1690213257998,1690212641544,L,weiblich,Deutsch,auditory,57cd94d892da98000100c395,64be98ff5060d1e91e11560d,64ba4c8d312ce994ea1f9971,7,8250,12,Critical
20,34,,Bachelor,with,616454,1690213257998,1690212641544,D,weiblich,Deutsch,auditory,57cd94d892da98000100c395,64be98ff5060d1e91e11560d,64ba4c8d312ce994ea1f9971,7,11302,13,Filler
20,34,,Bachelor,with,616454,1690213257998,1690212641544,F,weiblich,Deutsch,auditory,57cd94d892da98000100c395,64be98ff5060d1e91e11560d,64ba4c8d312ce994ea1f9971,7,7918,14,Critical
20,34,,Bachelor,with,616454,1690213257998,1690212641544,C,weiblich,Deutsch,auditory,57cd94d892da98000100c395,64be98ff5060d1e91e11560d,64ba4c8d312ce994ea1f9971,4,11593,15,Filler
20,34,,Bachelor,without,616454,1690213257998,1690212641544,F,weiblich,Deutsch,auditory,57cd94d892da98000100c395,64be98ff5060d1e91e11560d,64ba4c8d312ce994ea1f9971,7,7886,16,Critical
20,34,,Bachelor,with,616454,1690213257998,1690212641544,F,weiblich,Deutsch,auditory,57cd94d892da98000100c395,64be98ff5060d1e91e11560d,64ba4c8d312ce994ea1f9971,7,8005,17,Critical
20,34,,Bachelor,with,616454,1690213257998,1690212641544,A,weiblich,Deutsch,auditory,57cd94d892da98000100c395,64be98ff5060d1e91e11560d,64ba4c8d312ce994ea1f9971,7,7146,18,Filler
20,34,,Bachelor,without,616454,1690213257998,1690212641544,L,weiblich,Deutsch,auditory,57cd94d892da98000100c395,64be98ff5060d1e91e11560d,64ba4c8d312ce994ea1f9971,7,6774,19,Critical
20,34,,Bachelor,with,616454,1690213257998,1690212641544,B,weiblich,Deutsch,auditory,57cd94d892da98000100c395,64be98ff5060d1e91e11560d,64ba4c8d312ce994ea1f9971,5,9427,20,Filler
20,34,,Bachelor,with,616454,1690213257998,1690212641544,B,weiblich,Deutsch,auditory,57cd94d892da98000100c395,64be98ff5060d1e91e11560d,64ba4c8d312ce994ea1f9971,6,10583,21,Filler
20,34,,Bachelor,with,616454,1690213257998,1690212641544,E,weiblich,Deutsch,auditory,57cd94d892da98000100c395,64be98ff5060d1e91e11560d,64ba4c8d312ce994ea1f9971,4,13190,22,Filler
20,34,,Bachelor,with,616454,1690213257998,1690212641544,L,weiblich,Deutsch,auditory,57cd94d892da98000100c395,64be98ff5060d1e91e11560d,64ba4c8d312ce994ea1f9971,7,6942,23,Critical
20,34,,Bachelor,with,616454,1690213257998,1690212641544,E,weiblich,Deutsch,auditory,57cd94d892da98000100c395,64be98ff5060d1e91e11560d,64ba4c8d312ce994ea1f9971,3,7958,24,Filler
20,34,,Bachelor,with,616454,1690213257998,1690212641544,C,weiblich,Deutsch,auditory,57cd94d892da98000100c395,64be98ff5060d1e91e11560d,64ba4c8d312ce994ea1f9971,1,14648,25,Filler
20,34,,Bachelor,with,616454,1690213257998,1690212641544,E,weiblich,Deutsch,auditory,57cd94d892da98000100c395,64be98ff5060d1e91e11560d,64ba4c8d312ce994ea1f9971,3,8100,26,Filler
20,34,,Bachelor,with,616454,1690213257998,1690212641544,F,weiblich,Deutsch,auditory,57cd94d892da98000100c395,64be98ff5060d1e91e11560d,64ba4c8d312ce994ea1f9971,7,7692,27,Critical
20,34,,Bachelor,with,616454,1690213257998,1690212641544,F,weiblich,Deutsch,auditory,57cd94d892da98000100c395,64be98ff5060d1e91e11560d,64ba4c8d312ce994ea1f9971,7,8036,28,Critical
20,34,,Bachelor,without,616454,1690213257998,1690212641544,F,weiblich,Deutsch,auditory,57cd94d892da98000100c395,64be98ff5060d1e91e11560d,64ba4c8d312ce994ea1f9971,7,7044,29,Critical
20,34,,Bachelor,with,616454,1690213257998,1690212641544,L,weiblich,Deutsch,auditory,57cd94d892da98000100c395,64be98ff5060d1e91e11560d,64ba4c8d312ce994ea1f9971,7,8322,30,Critical
20,34,,Bachelor,without,616454,1690213257998,1690212641544,F,weiblich,Deutsch,auditory,57cd94d892da98000100c395,64be98ff5060d1e91e11560d,64ba4c8d312ce994ea1f9971,7,7492,31,Critical
20,34,,Bachelor,with,616454,1690213257998,1690212641544,D,weiblich,Deutsch,auditory,57cd94d892da98000100c395,64be98ff5060d1e91e11560d,64ba4c8d312ce994ea1f9971,1,9724,32,Filler
20,34,,Bachelor,with,616454,1690213257998,1690212641544,C,weiblich,Deutsch,auditory,57cd94d892da98000100c395,64be98ff5060d1e91e11560d,64ba4c8d312ce994ea1f9971,2,10080,33,Filler
20,34,,Bachelor,without,616454,1690213257998,1690212641544,L,weiblich,Deutsch,auditory,57cd94d892da98000100c395,64be98ff5060d1e91e11560d,64ba4c8d312ce994ea1f9971,7,7716,34,Critical
20,34,,Bachelor,with,616454,1690213257998,1690212641544,A,weiblich,Deutsch,auditory,57cd94d892da98000100c395,64be98ff5060d1e91e11560d,64ba4c8d312ce994ea1f9971,7,7192,35,Filler
20,34,,Bachelor,with,616454,1690213257998,1690212641544,E,weiblich,Deutsch,auditory,57cd94d892da98000100c395,64be98ff5060d1e91e11560d,64ba4c8d312ce994ea1f9971,2,10610,36,Filler
20,34,,Bachelor,with,616454,1690213257998,1690212641544,B,weiblich,Deutsch,auditory,57cd94d892da98000100c395,64be98ff5060d1e91e11560d,64ba4c8d312ce994ea1f9971,5,11382,37,Filler
20,34,,Bachelor,with,616454,1690213257998,1690212641544,B,weiblich,Deutsch,auditory,57cd94d892da98000100c395,64be98ff5060d1e91e11560d,64ba4c8d312ce994ea1f9971,6,8922,38,Filler
20,34,,Bachelor,with,616454,1690213257998,1690212641544,B,weiblich,Deutsch,auditory,57cd94d892da98000100c395,64be98ff5060d1e91e11560d,64ba4c8d312ce994ea1f9971,6,7326,39,Filler
20,34,,Bachelor,without,616454,1690213257998,1690212641544,L,weiblich,Deutsch,auditory,57cd94d892da98000100c395,64be98ff5060d1e91e11560d,64ba4c8d312ce994ea1f9971,7,6674,40,Critical
20,34,,Bachelor,without,616454,1690213257998,1690212641544,L,weiblich,Deutsch,auditory,57cd94d892da98000100c395,64be98ff5060d1e91e11560d,64ba4c8d312ce994ea1f9971,7,7808,41,Critical
20,34,,Bachelor,with,616454,1690213257998,1690212641544,F,weiblich,Deutsch,auditory,57cd94d892da98000100c395,64be98ff5060d1e91e11560d,64ba4c8d312ce994ea1f9971,7,8462,42,Critical
20,34,,Bachelor,with,616454,1690213257998,1690212641544,D,weiblich,Deutsch,auditory,57cd94d892da98000100c395,64be98ff5060d1e91e11560d,64ba4c8d312ce994ea1f9971,5,8274,43,Filler
20,34,,Bachelor,with,616454,1690213257998,1690212641544,L,weiblich,Deutsch,auditory,57cd94d892da98000100c395,64be98ff5060d1e91e11560d,64ba4c8d312ce994ea1f9971,7,8022,44,Critical
20,34,,Bachelor,with,616454,1690213257998,1690212641544,L,weiblich,Deutsch,auditory,57cd94d892da98000100c395,64be98ff5060d1e91e11560d,64ba4c8d312ce994ea1f9971,7,7154,45,Critical
20,34,,Bachelor,without,616454,1690213257998,1690212641544,F,weiblich,Deutsch,auditory,57cd94d892da98000100c395,64be98ff5060d1e91e11560d,64ba4c8d312ce994ea1f9971,7,6876,46,Critical
20,34,,Bachelor,with,616454,1690213257998,1690212641544,A,weiblich,Deutsch,auditory,57cd94d892da98000100c395,64be98ff5060d1e91e11560d,64ba4c8d312ce994ea1f9971,7,6910,47,Filler
20,34,,Bachelor,with,616454,1690213257998,1690212641544,F,weiblich,Deutsch,auditory,57cd94d892da98000100c395,64be98ff5060d1e91e11560d,64ba4c8d312ce994ea1f9971,7,7872,48,Critical
20,34,,Bachelor,with,616454,1690213257998,1690212641544,D,weiblich,Deutsch,auditory,57cd94d892da98000100c395,64be98ff5060d1e91e11560d,64ba4c8d312ce994ea1f9971,2,9116,49,Filler
20,34,,Bachelor,without,616454,1690213257998,1690212641544,L,weiblich,Deutsch,auditory,57cd94d892da98000100c395,64be98ff5060d1e91e11560d,64ba4c8d312ce994ea1f9971,7,7374,50,Critical
20,34,,Bachelor,without,616454,1690213257998,1690212641544,F,weiblich,Deutsch,auditory,57cd94d892da98000100c395,64be98ff5060d1e91e11560d,64ba4c8d312ce994ea1f9971,7,7248,51,Critical
20,34,,Bachelor,with,616454,1690213257998,1690212641544,L,weiblich,Deutsch,auditory,57cd94d892da98000100c395,64be98ff5060d1e91e11560d,64ba4c8d312ce994ea1f9971,7,6554,52,Critical
20,34,,Bachelor,with,616454,1690213257998,1690212641544,A,weiblich,Deutsch,auditory,57cd94d892da98000100c395,64be98ff5060d1e91e11560d,64ba4c8d312ce994ea1f9971,7,6294,53,Filler
20,34,,Bachelor,with,616454,1690213257998,1690212641544,E,weiblich,Deutsch,auditory,57cd94d892da98000100c395,64be98ff5060d1e91e11560d,64ba4c8d312ce994ea1f9971,5,7840,54,Filler
20,34,,Bachelor,without,616454,1690213257998,1690212641544,L,weiblich,Deutsch,auditory,57cd94d892da98000100c395,64be98ff5060d1e91e11560d,64ba4c8d312ce994ea1f9971,7,6706,55,Critical
20,34,,Bachelor,with,616454,1690213257998,1690212641544,D,weiblich,Deutsch,auditory,57cd94d892da98000100c395,64be98ff5060d1e91e11560d,64ba4c8d312ce994ea1f9971,2,10120,56,Filler
21,29,,Höherer Abschluss,with,555035,1690213390971,1690212835936,A,männlich,Deutsch,auditory,5d8c96e60ef92e001a7b8876,64be99c329ecc01727f259be,64ba4c8d312ce994ea1f9971,7,13319,1,Filler
21,29,,Höherer Abschluss,without,555035,1690213390971,1690212835936,L,männlich,Deutsch,auditory,5d8c96e60ef92e001a7b8876,64be99c329ecc01727f259be,64ba4c8d312ce994ea1f9971,7,7873,2,Critical
21,29,,Höherer Abschluss,with,555035,1690213390971,1690212835936,L,männlich,Deutsch,auditory,5d8c96e60ef92e001a7b8876,64be99c329ecc01727f259be,64ba4c8d312ce994ea1f9971,7,9063,3,Critical
21,29,,Höherer Abschluss,with,555035,1690213390971,1690212835936,L,männlich,Deutsch,auditory,5d8c96e60ef92e001a7b8876,64be99c329ecc01727f259be,64ba4c8d312ce994ea1f9971,7,8302,4,Critical
21,29,,Höherer Abschluss,with,555035,1690213390971,1690212835936,A,männlich,Deutsch,auditory,5d8c96e60ef92e001a7b8876,64be99c329ecc01727f259be,64ba4c8d312ce994ea1f9971,6,8759,5,Filler
21,29,,Höherer Abschluss,with,555035,1690213390971,1690212835936,F,männlich,Deutsch,auditory,5d8c96e60ef92e001a7b8876,64be99c329ecc01727f259be,64ba4c8d312ce994ea1f9971,7,8992,6,Critical
21,29,,Höherer Abschluss,with,555035,1690213390971,1690212835936,F,männlich,Deutsch,auditory,5d8c96e60ef92e001a7b8876,64be99c329ecc01727f259be,64ba4c8d312ce994ea1f9971,7,8231,7,Critical
21,29,,Höherer Abschluss,with,555035,1690213390971,1690212835936,B,männlich,Deutsch,auditory,5d8c96e60ef92e001a7b8876,64be99c329ecc01727f259be,64ba4c8d312ce994ea1f9971,7,10730,8,Filler
21,29,,Höherer Abschluss,without,555035,1690213390971,1690212835936,F,männlich,Deutsch,auditory,5d8c96e60ef92e001a7b8876,64be99c329ecc01727f259be,64ba4c8d312ce994ea1f9971,7,7577,9,Critical
21,29,,Höherer Abschluss,with,555035,1690213390971,1690212835936,C,männlich,Deutsch,auditory,5d8c96e60ef92e001a7b8876,64be99c329ecc01727f259be,64ba4c8d312ce994ea1f9971,6,14030,10,Filler
21,29,,Höherer Abschluss,with,555035,1690213390971,1690212835936,C,männlich,Deutsch,auditory,5d8c96e60ef92e001a7b8876,64be99c329ecc01727f259be,64ba4c8d312ce994ea1f9971,3,10633,11,Filler
21,29,,Höherer Abschluss,without,555035,1690213390971,1690212835936,F,männlich,Deutsch,auditory,5d8c96e60ef92e001a7b8876,64be99c329ecc01727f259be,64ba4c8d312ce994ea1f9971,7,7464,12,Critical
21,29,,Höherer Abschluss,with,555035,1690213390971,1690212835936,C,männlich,Deutsch,auditory,5d8c96e60ef92e001a7b8876,64be99c329ecc01727f259be,64ba4c8d312ce994ea1f9971,5,10422,13,Filler
21,29,,Höherer Abschluss,with,555035,1690213390971,1690212835936,L,männlich,Deutsch,auditory,5d8c96e60ef92e001a7b8876,64be99c329ecc01727f259be,64ba4c8d312ce994ea1f9971,7,6640,14,Critical
21,29,,Höherer Abschluss,with,555035,1690213390971,1690212835936,F,männlich,Deutsch,auditory,5d8c96e60ef92e001a7b8876,64be99c329ecc01727f259be,64ba4c8d312ce994ea1f9971,7,8010,15,Critical
21,29,,Höherer Abschluss,with,555035,1690213390971,1690212835936,E,männlich,Deutsch,auditory,5d8c96e60ef92e001a7b8876,64be99c329ecc01727f259be,64ba4c8d312ce994ea1f9971,2,9265,16,Filler
21,29,,Höherer Abschluss,with,555035,1690213390971,1690212835936,D,männlich,Deutsch,auditory,5d8c96e60ef92e001a7b8876,64be99c329ecc01727f259be,64ba4c8d312ce994ea1f9971,4,8483,17,Filler
21,29,,Höherer Abschluss,with,555035,1690213390971,1690212835936,L,männlich,Deutsch,auditory,5d8c96e60ef92e001a7b8876,64be99c329ecc01727f259be,64ba4c8d312ce994ea1f9971,7,8388,18,Critical
21,29,,Höherer Abschluss,with,555035,1690213390971,1690212835936,B,männlich,Deutsch,auditory,5d8c96e60ef92e001a7b8876,64be99c329ecc01727f259be,64ba4c8d312ce994ea1f9971,5,10044,19,Filler
21,29,,Höherer Abschluss,with,555035,1690213390971,1690212835936,F,männlich,Deutsch,auditory,5d8c96e60ef92e001a7b8876,64be99c329ecc01727f259be,64ba4c8d312ce994ea1f9971,7,7384,20,Critical
21,29,,Höherer Abschluss,with,555035,1690213390971,1690212835936,C,männlich,Deutsch,auditory,5d8c96e60ef92e001a7b8876,64be99c329ecc01727f259be,64ba4c8d312ce994ea1f9971,5,9989,21,Filler
21,29,,Höherer Abschluss,without,555035,1690213390971,1690212835936,L,männlich,Deutsch,auditory,5d8c96e60ef92e001a7b8876,64be99c329ecc01727f259be,64ba4c8d312ce994ea1f9971,7,6725,22,Critical
21,29,,Höherer Abschluss,with,555035,1690213390971,1690212835936,E,männlich,Deutsch,auditory,5d8c96e60ef92e001a7b8876,64be99c329ecc01727f259be,64ba4c8d312ce994ea1f9971,4,9955,23,Filler
21,29,,Höherer Abschluss,with,555035,1690213390971,1690212835936,L,männlich,Deutsch,auditory,5d8c96e60ef92e001a7b8876,64be99c329ecc01727f259be,64ba4c8d312ce994ea1f9971,7,7898,24,Critical
21,29,,Höherer Abschluss,with,555035,1690213390971,1690212835936,B,männlich,Deutsch,auditory,5d8c96e60ef92e001a7b8876,64be99c329ecc01727f259be,64ba4c8d312ce994ea1f9971,3,7191,25,Filler
21,29,,Höherer Abschluss,without,555035,1690213390971,1690212835936,F,männlich,Deutsch,auditory,5d8c96e60ef92e001a7b8876,64be99c329ecc01727f259be,64ba4c8d312ce994ea1f9971,7,8456,26,Critical
21,29,,Höherer Abschluss,without,555035,1690213390971,1690212835936,F,männlich,Deutsch,auditory,5d8c96e60ef92e001a7b8876,64be99c329ecc01727f259be,64ba4c8d312ce994ea1f9971,7,7140,27,Critical
21,29,,Höherer Abschluss,with,555035,1690213390971,1690212835936,A,männlich,Deutsch,auditory,5d8c96e60ef92e001a7b8876,64be99c329ecc01727f259be,64ba4c8d312ce994ea1f9971,7,9412,28,Filler
21,29,,Höherer Abschluss,without,555035,1690213390971,1690212835936,F,männlich,Deutsch,auditory,5d8c96e60ef92e001a7b8876,64be99c329ecc01727f259be,64ba4c8d312ce994ea1f9971,7,8011,29,Critical
21,29,,Höherer Abschluss,with,555035,1690213390971,1690212835936,L,männlich,Deutsch,auditory,5d8c96e60ef92e001a7b8876,64be99c329ecc01727f259be,64ba4c8d312ce994ea1f9971,7,7614,30,Critical
21,29,,Höherer Abschluss,with,555035,1690213390971,1690212835936,C,männlich,Deutsch,auditory,5d8c96e60ef92e001a7b8876,64be99c329ecc01727f259be,64ba4c8d312ce994ea1f9971,6,11189,31,Filler
21,29,,Höherer Abschluss,with,555035,1690213390971,1690212835936,E,männlich,Deutsch,auditory,5d8c96e60ef92e001a7b8876,64be99c329ecc01727f259be,64ba4c8d312ce994ea1f9971,3,13713,32,Filler
21,29,,Höherer Abschluss,with,555035,1690213390971,1690212835936,F,männlich,Deutsch,auditory,5d8c96e60ef92e001a7b8876,64be99c329ecc01727f259be,64ba4c8d312ce994ea1f9971,7,8013,33,Critical
21,29,,Höherer Abschluss,with,555035,1690213390971,1690212835936,D,männlich,Deutsch,auditory,5d8c96e60ef92e001a7b8876,64be99c329ecc01727f259be,64ba4c8d312ce994ea1f9971,3,8820,34,Filler
21,29,,Höherer Abschluss,without,555035,1690213390971,1690212835936,L,männlich,Deutsch,auditory,5d8c96e60ef92e001a7b8876,64be99c329ecc01727f259be,64ba4c8d312ce994ea1f9971,7,7513,35,Critical
21,29,,Höherer Abschluss,with,555035,1690213390971,1690212835936,E,männlich,Deutsch,auditory,5d8c96e60ef92e001a7b8876,64be99c329ecc01727f259be,64ba4c8d312ce994ea1f9971,5,9580,36,Filler
21,29,,Höherer Abschluss,with,555035,1690213390971,1690212835936,D,männlich,Deutsch,auditory,5d8c96e60ef92e001a7b8876,64be99c329ecc01727f259be,64ba4c8d312ce994ea1f9971,5,9100,37,Filler
21,29,,Höherer Abschluss,with,555035,1690213390971,1690212835936,D,männlich,Deutsch,auditory,5d8c96e60ef92e001a7b8876,64be99c329ecc01727f259be,64ba4c8d312ce994ea1f9971,2,8254,38,Filler
21,29,,Höherer Abschluss,with,555035,1690213390971,1690212835936,C,männlich,Deutsch,auditory,5d8c96e60ef92e001a7b8876,64be99c329ecc01727f259be,64ba4c8d312ce994ea1f9971,5,8292,39,Filler
21,29,,Höherer Abschluss,with,555035,1690213390971,1690212835936,D,männlich,Deutsch,auditory,5d8c96e60ef92e001a7b8876,64be99c329ecc01727f259be,64ba4c8d312ce994ea1f9971,2,8925,40,Filler
21,29,,Höherer Abschluss,without,555035,1690213390971,1690212835936,L,männlich,Deutsch,auditory,5d8c96e60ef92e001a7b8876,64be99c329ecc01727f259be,64ba4c8d312ce994ea1f9971,7,6814,41,Critical
21,29,,Höherer Abschluss,without,555035,1690213390971,1690212835936,F,männlich,Deutsch,auditory,5d8c96e60ef92e001a7b8876,64be99c329ecc01727f259be,64ba4c8d312ce994ea1f9971,7,7296,42,Critical
21,29,,Höherer Abschluss,with,555035,1690213390971,1690212835936,B,männlich,Deutsch,auditory,5d8c96e60ef92e001a7b8876,64be99c329ecc01727f259be,64ba4c8d312ce994ea1f9971,6,7593,43,Filler
21,29,,Höherer Abschluss,without,555035,1690213390971,1690212835936,L,männlich,Deutsch,auditory,5d8c96e60ef92e001a7b8876,64be99c329ecc01727f259be,64ba4c8d312ce994ea1f9971,7,7160,44,Critical
21,29,,Höherer Abschluss,with,555035,1690213390971,1690212835936,F,männlich,Deutsch,auditory,5d8c96e60ef92e001a7b8876,64be99c329ecc01727f259be,64ba4c8d312ce994ea1f9971,7,8104,45,Critical
21,29,,Höherer Abschluss,with,555035,1690213390971,1690212835936,D,männlich,Deutsch,auditory,5d8c96e60ef92e001a7b8876,64be99c329ecc01727f259be,64ba4c8d312ce994ea1f9971,2,10696,46,Filler
21,29,,Höherer Abschluss,with,555035,1690213390971,1690212835936,L,männlich,Deutsch,auditory,5d8c96e60ef92e001a7b8876,64be99c329ecc01727f259be,64ba4c8d312ce994ea1f9971,7,7507,47,Critical
21,29,,Höherer Abschluss,without,555035,1690213390971,1690212835936,L,männlich,Deutsch,auditory,5d8c96e60ef92e001a7b8876,64be99c329ecc01727f259be,64ba4c8d312ce994ea1f9971,7,7880,48,Critical
21,29,,Höherer Abschluss,with,555035,1690213390971,1690212835936,B,männlich,Deutsch,auditory,5d8c96e60ef92e001a7b8876,64be99c329ecc01727f259be,64ba4c8d312ce994ea1f9971,7,10021,49,Filler
21,29,,Höherer Abschluss,with,555035,1690213390971,1690212835936,B,männlich,Deutsch,auditory,5d8c96e60ef92e001a7b8876,64be99c329ecc01727f259be,64ba4c8d312ce994ea1f9971,7,10249,50,Filler
21,29,,Höherer Abschluss,with,555035,1690213390971,1690212835936,A,männlich,Deutsch,auditory,5d8c96e60ef92e001a7b8876,64be99c329ecc01727f259be,64ba4c8d312ce994ea1f9971,7,9195,51,Filler
21,29,,Höherer Abschluss,with,555035,1690213390971,1690212835936,F,männlich,Deutsch,auditory,5d8c96e60ef92e001a7b8876,64be99c329ecc01727f259be,64ba4c8d312ce994ea1f9971,7,7950,52,Critical
21,29,,Höherer Abschluss,without,555035,1690213390971,1690212835936,L,männlich,Deutsch,auditory,5d8c96e60ef92e001a7b8876,64be99c329ecc01727f259be,64ba4c8d312ce994ea1f9971,7,7865,53,Critical
21,29,,Höherer Abschluss,with,555035,1690213390971,1690212835936,E,männlich,Deutsch,auditory,5d8c96e60ef92e001a7b8876,64be99c329ecc01727f259be,64ba4c8d312ce994ea1f9971,4,8487,54,Filler
21,29,,Höherer Abschluss,without,555035,1690213390971,1690212835936,F,männlich,Deutsch,auditory,5d8c96e60ef92e001a7b8876,64be99c329ecc01727f259be,64ba4c8d312ce994ea1f9971,7,7021,55,Critical
21,29,,Höherer Abschluss,with,555035,1690213390971,1690212835936,A,männlich,Deutsch,auditory,5d8c96e60ef92e001a7b8876,64be99c329ecc01727f259be,64ba4c8d312ce994ea1f9971,7,7528,56,Filler
22,21,,Abitur,without,326439,1690213516773,1690213190334,F,männlich,Deutsch,written,5bb8a14e002f190001a30ec7,64be96bd92df55f996900995,64ba4c8d312ce994ea1f9971,6,12332,1,Critical
22,21,,Abitur,without,326439,1690213516773,1690213190334,D,männlich,Deutsch,written,5bb8a14e002f190001a30ec7,64be96bd92df55f996900995,64ba4c8d312ce994ea1f9971,6,3268,2,Filler
22,21,,Abitur,without,326439,1690213516773,1690213190334,L,männlich,Deutsch,written,5bb8a14e002f190001a30ec7,64be96bd92df55f996900995,64ba4c8d312ce994ea1f9971,7,4228,3,Critical
22,21,,Abitur,without,326439,1690213516773,1690213190334,L,männlich,Deutsch,written,5bb8a14e002f190001a30ec7,64be96bd92df55f996900995,64ba4c8d312ce994ea1f9971,6,5618,4,Critical
22,21,,Abitur,without,326439,1690213516773,1690213190334,F,männlich,Deutsch,written,5bb8a14e002f190001a30ec7,64be96bd92df55f996900995,64ba4c8d312ce994ea1f9971,6,65460,5,Critical
22,21,,Abitur,without,326439,1690213516773,1690213190334,L,männlich,Deutsch,written,5bb8a14e002f190001a30ec7,64be96bd92df55f996900995,64ba4c8d312ce994ea1f9971,6,3994,6,Critical
22,21,,Abitur,with,326439,1690213516773,1690213190334,L,männlich,Deutsch,written,5bb8a14e002f190001a30ec7,64be96bd92df55f996900995,64ba4c8d312ce994ea1f9971,6,3874,7,Critical
22,21,,Abitur,without,326439,1690213516773,1690213190334,L,männlich,Deutsch,written,5bb8a14e002f190001a30ec7,64be96bd92df55f996900995,64ba4c8d312ce994ea1f9971,7,2964,8,Critical
22,21,,Abitur,without,326439,1690213516773,1690213190334,D,männlich,Deutsch,written,5bb8a14e002f190001a30ec7,64be96bd92df55f996900995,64ba4c8d312ce994ea1f9971,3,3800,9,Filler
22,21,,Abitur,without,326439,1690213516773,1690213190334,F,männlich,Deutsch,written,5bb8a14e002f190001a30ec7,64be96bd92df55f996900995,64ba4c8d312ce994ea1f9971,5,2087,10,Critical
22,21,,Abitur,without,326439,1690213516773,1690213190334,L,männlich,Deutsch,written,5bb8a14e002f190001a30ec7,64be96bd92df55f996900995,64ba4c8d312ce994ea1f9971,6,2942,11,Critical
22,21,,Abitur,without,326439,1690213516773,1690213190334,B,männlich,Deutsch,written,5bb8a14e002f190001a30ec7,64be96bd92df55f996900995,64ba4c8d312ce994ea1f9971,4,8561,12,Filler
22,21,,Abitur,without,326439,1690213516773,1690213190334,C,männlich,Deutsch,written,5bb8a14e002f190001a30ec7,64be96bd92df55f996900995,64ba4c8d312ce994ea1f9971,2,2254,13,Filler
22,21,,Abitur,without,326439,1690213516773,1690213190334,E,männlich,Deutsch,written,5bb8a14e002f190001a30ec7,64be96bd92df55f996900995,64ba4c8d312ce994ea1f9971,1,6457,14,Filler
22,21,,Abitur,without,326439,1690213516773,1690213190334,E,männlich,Deutsch,written,5bb8a14e002f190001a30ec7,64be96bd92df55f996900995,64ba4c8d312ce994ea1f9971,4,4734,15,Filler
22,21,,Abitur,without,326439,1690213516773,1690213190334,A,männlich,Deutsch,written,5bb8a14e002f190001a30ec7,64be96bd92df55f996900995,64ba4c8d312ce994ea1f9971,6,2628,16,Filler
22,21,,Abitur,without,326439,1690213516773,1690213190334,D,männlich,Deutsch,written,5bb8a14e002f190001a30ec7,64be96bd92df55f996900995,64ba4c8d312ce994ea1f9971,1,2675,17,Filler
22,21,,Abitur,without,326439,1690213516773,1690213190334,C,männlich,Deutsch,written,5bb8a14e002f190001a30ec7,64be96bd92df55f996900995,64ba4c8d312ce994ea1f9971,2,3061,18,Filler
22,21,,Abitur,with,326439,1690213516773,1690213190334,L,männlich,Deutsch,written,5bb8a14e002f190001a30ec7,64be96bd92df55f996900995,64ba4c8d312ce994ea1f9971,6,3899,19,Critical
22,21,,Abitur,without,326439,1690213516773,1690213190334,D,männlich,Deutsch,written,5bb8a14e002f190001a30ec7,64be96bd92df55f996900995,64ba4c8d312ce994ea1f9971,2,3848,20,Filler
22,21,,Abitur,without,326439,1690213516773,1690213190334,D,männlich,Deutsch,written,5bb8a14e002f190001a30ec7,64be96bd92df55f996900995,64ba4c8d312ce994ea1f9971,2,3419,21,Filler
22,21,,Abitur,with,326439,1690213516773,1690213190334,F,männlich,Deutsch,written,5bb8a14e002f190001a30ec7,64be96bd92df55f996900995,64ba4c8d312ce994ea1f9971,6,2772,22,Critical
22,21,,Abitur,without,326439,1690213516773,1690213190334,C,männlich,Deutsch,written,5bb8a14e002f190001a30ec7,64be96bd92df55f996900995,64ba4c8d312ce994ea1f9971,2,5695,23,Filler
22,21,,Abitur,without,326439,1690213516773,1690213190334,F,männlich,Deutsch,written,5bb8a14e002f190001a30ec7,64be96bd92df55f996900995,64ba4c8d312ce994ea1f9971,6,4303,24,Critical
22,21,,Abitur,with,326439,1690213516773,1690213190334,F,männlich,Deutsch,written,5bb8a14e002f190001a30ec7,64be96bd92df55f996900995,64ba4c8d312ce994ea1f9971,6,2887,25,Critical
22,21,,Abitur,with,326439,1690213516773,1690213190334,L,männlich,Deutsch,written,5bb8a14e002f190001a30ec7,64be96bd92df55f996900995,64ba4c8d312ce994ea1f9971,6,7546,26,Critical
22,21,,Abitur,without,326439,1690213516773,1690213190334,B,männlich,Deutsch,written,5bb8a14e002f190001a30ec7,64be96bd92df55f996900995,64ba4c8d312ce994ea1f9971,3,3636,27,Filler
22,21,,Abitur,without,326439,1690213516773,1690213190334,B,männlich,Deutsch,written,5bb8a14e002f190001a30ec7,64be96bd92df55f996900995,64ba4c8d312ce994ea1f9971,5,3952,28,Filler
22,21,,Abitur,without,326439,1690213516773,1690213190334,L,männlich,Deutsch,written,5bb8a14e002f190001a30ec7,64be96bd92df55f996900995,64ba4c8d312ce994ea1f9971,6,2870,29,Critical
22,21,,Abitur,without,326439,1690213516773,1690213190334,A,männlich,Deutsch,written,5bb8a14e002f190001a30ec7,64be96bd92df55f996900995,64ba4c8d312ce994ea1f9971,7,3673,30,Filler
22,21,,Abitur,without,326439,1690213516773,1690213190334,C,männlich,Deutsch,written,5bb8a14e002f190001a30ec7,64be96bd92df55f996900995,64ba4c8d312ce994ea1f9971,4,3744,31,Filler
22,21,,Abitur,with,326439,1690213516773,1690213190334,F,männlich,Deutsch,written,5bb8a14e002f190001a30ec7,64be96bd92df55f996900995,64ba4c8d312ce994ea1f9971,5,2868,32,Critical
22,21,,Abitur,without,326439,1690213516773,1690213190334,E,männlich,Deutsch,written,5bb8a14e002f190001a30ec7,64be96bd92df55f996900995,64ba4c8d312ce994ea1f9971,3,5158,33,Filler
22,21,,Abitur,without,326439,1690213516773,1690213190334,F,männlich,Deutsch,written,5bb8a14e002f190001a30ec7,64be96bd92df55f996900995,64ba4c8d312ce994ea1f9971,6,5951,34,Critical
22,21,,Abitur,without,326439,1690213516773,1690213190334,E,männlich,Deutsch,written,5bb8a14e002f190001a30ec7,64be96bd92df55f996900995,64ba4c8d312ce994ea1f9971,3,5049,35,Filler
22,21,,Abitur,without,326439,1690213516773,1690213190334,D,männlich,Deutsch,written,5bb8a14e002f190001a30ec7,64be96bd92df55f996900995,64ba4c8d312ce994ea1f9971,3,3804,36,Filler
22,21,,Abitur,with,326439,1690213516773,1690213190334,F,männlich,Deutsch,written,5bb8a14e002f190001a30ec7,64be96bd92df55f996900995,64ba4c8d312ce994ea1f9971,6,4083,37,Critical
22,21,,Abitur,without,326439,1690213516773,1690213190334,C,männlich,Deutsch,written,5bb8a14e002f190001a30ec7,64be96bd92df55f996900995,64ba4c8d312ce994ea1f9971,3,3596,38,Filler
22,21,,Abitur,with,326439,1690213516773,1690213190334,F,männlich,Deutsch,written,5bb8a14e002f190001a30ec7,64be96bd92df55f996900995,64ba4c8d312ce994ea1f9971,6,2430,39,Critical
22,21,,Abitur,without,326439,1690213516773,1690213190334,A,männlich,Deutsch,written,5bb8a14e002f190001a30ec7,64be96bd92df55f996900995,64ba4c8d312ce994ea1f9971,5,3065,40,Filler
22,21,,Abitur,without,326439,1690213516773,1690213190334,B,männlich,Deutsch,written,5bb8a14e002f190001a30ec7,64be96bd92df55f996900995,64ba4c8d312ce994ea1f9971,3,2683,41,Filler
22,21,,Abitur,without,326439,1690213516773,1690213190334,A,männlich,Deutsch,written,5bb8a14e002f190001a30ec7,64be96bd92df55f996900995,64ba4c8d312ce994ea1f9971,7,3918,42,Filler
22,21,,Abitur,without,326439,1690213516773,1690213190334,E,männlich,Deutsch,written,5bb8a14e002f190001a30ec7,64be96bd92df55f996900995,64ba4c8d312ce994ea1f9971,4,4612,43,Filler
22,21,,Abitur,without,326439,1690213516773,1690213190334,F,männlich,Deutsch,written,5bb8a14e002f190001a30ec7,64be96bd92df55f996900995,64ba4c8d312ce994ea1f9971,7,3788,44,Critical
22,21,,Abitur,with,326439,1690213516773,1690213190334,L,männlich,Deutsch,written,5bb8a14e002f190001a30ec7,64be96bd92df55f996900995,64ba4c8d312ce994ea1f9971,6,13759,45,Critical
22,21,,Abitur,without,326439,1690213516773,1690213190334,C,männlich,Deutsch,written,5bb8a14e002f190001a30ec7,64be96bd92df55f996900995,64ba4c8d312ce994ea1f9971,2,17558,46,Filler
22,21,,Abitur,with,326439,1690213516773,1690213190334,F,männlich,Deutsch,written,5bb8a14e002f190001a30ec7,64be96bd92df55f996900995,64ba4c8d312ce994ea1f9971,6,3391,47,Critical
22,21,,Abitur,without,326439,1690213516773,1690213190334,F,männlich,Deutsch,written,5bb8a14e002f190001a30ec7,64be96bd92df55f996900995,64ba4c8d312ce994ea1f9971,7,3303,48,Critical
22,21,,Abitur,without,326439,1690213516773,1690213190334,A,männlich,Deutsch,written,5bb8a14e002f190001a30ec7,64be96bd92df55f996900995,64ba4c8d312ce994ea1f9971,7,2075,49,Filler
22,21,,Abitur,with,326439,1690213516773,1690213190334,L,männlich,Deutsch,written,5bb8a14e002f190001a30ec7,64be96bd92df55f996900995,64ba4c8d312ce994ea1f9971,4,3747,50,Critical
22,21,,Abitur,without,326439,1690213516773,1690213190334,L,männlich,Deutsch,written,5bb8a14e002f190001a30ec7,64be96bd92df55f996900995,64ba4c8d312ce994ea1f9971,6,2103,51,Critical
22,21,,Abitur,with,326439,1690213516773,1690213190334,L,männlich,Deutsch,written,5bb8a14e002f190001a30ec7,64be96bd92df55f996900995,64ba4c8d312ce994ea1f9971,6,3044,52,Critical
22,21,,Abitur,without,326439,1690213516773,1690213190334,B,männlich,Deutsch,written,5bb8a14e002f190001a30ec7,64be96bd92df55f996900995,64ba4c8d312ce994ea1f9971,3,4035,53,Filler
22,21,,Abitur,with,326439,1690213516773,1690213190334,F,männlich,Deutsch,written,5bb8a14e002f190001a30ec7,64be96bd92df55f996900995,64ba4c8d312ce994ea1f9971,6,4321,54,Critical
22,21,,Abitur,with,326439,1690213516773,1690213190334,L,männlich,Deutsch,written,5bb8a14e002f190001a30ec7,64be96bd92df55f996900995,64ba4c8d312ce994ea1f9971,6,4443,55,Critical
22,21,,Abitur,without,326439,1690213516773,1690213190334,B,männlich,Deutsch,written,5bb8a14e002f190001a30ec7,64be96bd92df55f996900995,64ba4c8d312ce994ea1f9971,7,4630,56,Filler
23,29,,Abitur,without,627762,1690213561055,1690212933293,B,männlich,deutsch,written,5e6a3e3d265930022e81c70b,64be9a10d3e12291dd6b77ca,64ba4c8d312ce994ea1f9971,6,32136,1,Filler
23,29,,Abitur,with,627762,1690213561055,1690212933293,L,männlich,deutsch,written,5e6a3e3d265930022e81c70b,64be9a10d3e12291dd6b77ca,64ba4c8d312ce994ea1f9971,7,10128,2,Critical
23,29,,Abitur,without,627762,1690213561055,1690212933293,C,männlich,deutsch,written,5e6a3e3d265930022e81c70b,64be9a10d3e12291dd6b77ca,64ba4c8d312ce994ea1f9971,3,7020,3,Filler
23,29,,Abitur,without,627762,1690213561055,1690212933293,D,männlich,deutsch,written,5e6a3e3d265930022e81c70b,64be9a10d3e12291dd6b77ca,64ba4c8d312ce994ea1f9971,6,10578,4,Filler
23,29,,Abitur,with,627762,1690213561055,1690212933293,L,männlich,deutsch,written,5e6a3e3d265930022e81c70b,64be9a10d3e12291dd6b77ca,64ba4c8d312ce994ea1f9971,7,11949,5,Critical
23,29,,Abitur,without,627762,1690213561055,1690212933293,L,männlich,deutsch,written,5e6a3e3d265930022e81c70b,64be9a10d3e12291dd6b77ca,64ba4c8d312ce994ea1f9971,7,8304,6,Critical
23,29,,Abitur,without,627762,1690213561055,1690212933293,A,männlich,deutsch,written,5e6a3e3d265930022e81c70b,64be9a10d3e12291dd6b77ca,64ba4c8d312ce994ea1f9971,7,11643,7,Filler
23,29,,Abitur,with,627762,1690213561055,1690212933293,L,männlich,deutsch,written,5e6a3e3d265930022e81c70b,64be9a10d3e12291dd6b77ca,64ba4c8d312ce994ea1f9971,7,12858,8,Critical
23,29,,Abitur,without,627762,1690213561055,1690212933293,F,männlich,deutsch,written,5e6a3e3d265930022e81c70b,64be9a10d3e12291dd6b77ca,64ba4c8d312ce994ea1f9971,6,7447,9,Critical
23,29,,Abitur,without,627762,1690213561055,1690212933293,E,männlich,deutsch,written,5e6a3e3d265930022e81c70b,64be9a10d3e12291dd6b77ca,64ba4c8d312ce994ea1f9971,3,7373,10,Filler
23,29,,Abitur,with,627762,1690213561055,1690212933293,L,männlich,deutsch,written,5e6a3e3d265930022e81c70b,64be9a10d3e12291dd6b77ca,64ba4c8d312ce994ea1f9971,7,5999,11,Critical
23,29,,Abitur,without,627762,1690213561055,1690212933293,C,männlich,deutsch,written,5e6a3e3d265930022e81c70b,64be9a10d3e12291dd6b77ca,64ba4c8d312ce994ea1f9971,5,9205,12,Filler
23,29,,Abitur,without,627762,1690213561055,1690212933293,L,männlich,deutsch,written,5e6a3e3d265930022e81c70b,64be9a10d3e12291dd6b77ca,64ba4c8d312ce994ea1f9971,7,7780,13,Critical
23,29,,Abitur,without,627762,1690213561055,1690212933293,E,männlich,deutsch,written,5e6a3e3d265930022e81c70b,64be9a10d3e12291dd6b77ca,64ba4c8d312ce994ea1f9971,4,10836,14,Filler
23,29,,Abitur,without,627762,1690213561055,1690212933293,L,männlich,deutsch,written,5e6a3e3d265930022e81c70b,64be9a10d3e12291dd6b77ca,64ba4c8d312ce994ea1f9971,7,11005,15,Critical
23,29,,Abitur,without,627762,1690213561055,1690212933293,B,männlich,deutsch,written,5e6a3e3d265930022e81c70b,64be9a10d3e12291dd6b77ca,64ba4c8d312ce994ea1f9971,3,10871,16,Filler
23,29,,Abitur,without,627762,1690213561055,1690212933293,E,männlich,deutsch,written,5e6a3e3d265930022e81c70b,64be9a10d3e12291dd6b77ca,64ba4c8d312ce994ea1f9971,6,12776,17,Filler
23,29,,Abitur,without,627762,1690213561055,1690212933293,F,männlich,deutsch,written,5e6a3e3d265930022e81c70b,64be9a10d3e12291dd6b77ca,64ba4c8d312ce994ea1f9971,7,9444,18,Critical
23,29,,Abitur,without,627762,1690213561055,1690212933293,E,männlich,deutsch,written,5e6a3e3d265930022e81c70b,64be9a10d3e12291dd6b77ca,64ba4c8d312ce994ea1f9971,5,6989,19,Filler
23,29,,Abitur,without,627762,1690213561055,1690212933293,D,männlich,deutsch,written,5e6a3e3d265930022e81c70b,64be9a10d3e12291dd6b77ca,64ba4c8d312ce994ea1f9971,6,12322,20,Filler
23,29,,Abitur,without,627762,1690213561055,1690212933293,F,männlich,deutsch,written,5e6a3e3d265930022e81c70b,64be9a10d3e12291dd6b77ca,64ba4c8d312ce994ea1f9971,7,7207,21,Critical
23,29,,Abitur,with,627762,1690213561055,1690212933293,F,männlich,deutsch,written,5e6a3e3d265930022e81c70b,64be9a10d3e12291dd6b77ca,64ba4c8d312ce994ea1f9971,7,8440,22,Critical
23,29,,Abitur,without,627762,1690213561055,1690212933293,C,männlich,deutsch,written,5e6a3e3d265930022e81c70b,64be9a10d3e12291dd6b77ca,64ba4c8d312ce994ea1f9971,4,12204,23,Filler
23,29,,Abitur,without,627762,1690213561055,1690212933293,B,männlich,deutsch,written,5e6a3e3d265930022e81c70b,64be9a10d3e12291dd6b77ca,64ba4c8d312ce994ea1f9971,5,6284,24,Filler
23,29,,Abitur,without,627762,1690213561055,1690212933293,F,männlich,deutsch,written,5e6a3e3d265930022e81c70b,64be9a10d3e12291dd6b77ca,64ba4c8d312ce994ea1f9971,7,5790,25,Critical
23,29,,Abitur,without,627762,1690213561055,1690212933293,C,männlich,deutsch,written,5e6a3e3d265930022e81c70b,64be9a10d3e12291dd6b77ca,64ba4c8d312ce994ea1f9971,5,9643,26,Filler
23,29,,Abitur,without,627762,1690213561055,1690212933293,F,männlich,deutsch,written,5e6a3e3d265930022e81c70b,64be9a10d3e12291dd6b77ca,64ba4c8d312ce994ea1f9971,7,15134,27,Critical
23,29,,Abitur,without,627762,1690213561055,1690212933293,D,männlich,deutsch,written,5e6a3e3d265930022e81c70b,64be9a10d3e12291dd6b77ca,64ba4c8d312ce994ea1f9971,5,8490,28,Filler
23,29,,Abitur,without,627762,1690213561055,1690212933293,L,männlich,deutsch,written,5e6a3e3d265930022e81c70b,64be9a10d3e12291dd6b77ca,64ba4c8d312ce994ea1f9971,7,4313,29,Critical
23,29,,Abitur,without,627762,1690213561055,1690212933293,L,männlich,deutsch,written,5e6a3e3d265930022e81c70b,64be9a10d3e12291dd6b77ca,64ba4c8d312ce994ea1f9971,7,4694,30,Critical
23,29,,Abitur,without,627762,1690213561055,1690212933293,C,männlich,deutsch,written,5e6a3e3d265930022e81c70b,64be9a10d3e12291dd6b77ca,64ba4c8d312ce994ea1f9971,4,9873,31,Filler
23,29,,Abitur,without,627762,1690213561055,1690212933293,A,männlich,deutsch,written,5e6a3e3d265930022e81c70b,64be9a10d3e12291dd6b77ca,64ba4c8d312ce994ea1f9971,7,7555,32,Filler
23,29,,Abitur,with,627762,1690213561055,1690212933293,L,männlich,deutsch,written,5e6a3e3d265930022e81c70b,64be9a10d3e12291dd6b77ca,64ba4c8d312ce994ea1f9971,7,9153,33,Critical
23,29,,Abitur,without,627762,1690213561055,1690212933293,A,männlich,deutsch,written,5e6a3e3d265930022e81c70b,64be9a10d3e12291dd6b77ca,64ba4c8d312ce994ea1f9971,7,15541,34,Filler
23,29,,Abitur,without,627762,1690213561055,1690212933293,E,männlich,deutsch,written,5e6a3e3d265930022e81c70b,64be9a10d3e12291dd6b77ca,64ba4c8d312ce994ea1f9971,2,11647,35,Filler
23,29,,Abitur,without,627762,1690213561055,1690212933293,B,männlich,deutsch,written,5e6a3e3d265930022e81c70b,64be9a10d3e12291dd6b77ca,64ba4c8d312ce994ea1f9971,5,6424,36,Filler
23,29,,Abitur,without,627762,1690213561055,1690212933293,F,männlich,deutsch,written,5e6a3e3d265930022e81c70b,64be9a10d3e12291dd6b77ca,64ba4c8d312ce994ea1f9971,7,5004,37,Critical
23,29,,Abitur,without,627762,1690213561055,1690212933293,D,männlich,deutsch,written,5e6a3e3d265930022e81c70b,64be9a10d3e12291dd6b77ca,64ba4c8d312ce994ea1f9971,6,9195,38,Filler
23,29,,Abitur,without,627762,1690213561055,1690212933293,L,männlich,deutsch,written,5e6a3e3d265930022e81c70b,64be9a10d3e12291dd6b77ca,64ba4c8d312ce994ea1f9971,7,6852,39,Critical
23,29,,Abitur,with,627762,1690213561055,1690212933293,F,männlich,deutsch,written,5e6a3e3d265930022e81c70b,64be9a10d3e12291dd6b77ca,64ba4c8d312ce994ea1f9971,7,5487,40,Critical
23,29,,Abitur,with,627762,1690213561055,1690212933293,F,männlich,deutsch,written,5e6a3e3d265930022e81c70b,64be9a10d3e12291dd6b77ca,64ba4c8d312ce994ea1f9971,7,6386,41,Critical
23,29,,Abitur,with,627762,1690213561055,1690212933293,F,männlich,deutsch,written,5e6a3e3d265930022e81c70b,64be9a10d3e12291dd6b77ca,64ba4c8d312ce994ea1f9971,7,13763,42,Critical
23,29,,Abitur,without,627762,1690213561055,1690212933293,C,männlich,deutsch,written,5e6a3e3d265930022e81c70b,64be9a10d3e12291dd6b77ca,64ba4c8d312ce994ea1f9971,3,12231,43,Filler
23,29,,Abitur,with,627762,1690213561055,1690212933293,F,männlich,deutsch,written,5e6a3e3d265930022e81c70b,64be9a10d3e12291dd6b77ca,64ba4c8d312ce994ea1f9971,7,4924,44,Critical
23,29,,Abitur,without,627762,1690213561055,1690212933293,D,männlich,deutsch,written,5e6a3e3d265930022e81c70b,64be9a10d3e12291dd6b77ca,64ba4c8d312ce994ea1f9971,6,8548,45,Filler
23,29,,Abitur,without,627762,1690213561055,1690212933293,A,männlich,deutsch,written,5e6a3e3d265930022e81c70b,64be9a10d3e12291dd6b77ca,64ba4c8d312ce994ea1f9971,7,5837,46,Filler
23,29,,Abitur,without,627762,1690213561055,1690212933293,F,männlich,deutsch,written,5e6a3e3d265930022e81c70b,64be9a10d3e12291dd6b77ca,64ba4c8d312ce994ea1f9971,7,5359,47,Critical
23,29,,Abitur,with,627762,1690213561055,1690212933293,L,männlich,deutsch,written,5e6a3e3d265930022e81c70b,64be9a10d3e12291dd6b77ca,64ba4c8d312ce994ea1f9971,7,5934,48,Critical
23,29,,Abitur,without,627762,1690213561055,1690212933293,B,männlich,deutsch,written,5e6a3e3d265930022e81c70b,64be9a10d3e12291dd6b77ca,64ba4c8d312ce994ea1f9971,7,4663,49,Filler
23,29,,Abitur,with,627762,1690213561055,1690212933293,F,männlich,deutsch,written,5e6a3e3d265930022e81c70b,64be9a10d3e12291dd6b77ca,64ba4c8d312ce994ea1f9971,7,8453,50,Critical
23,29,,Abitur,without,627762,1690213561055,1690212933293,L,männlich,deutsch,written,5e6a3e3d265930022e81c70b,64be9a10d3e12291dd6b77ca,64ba4c8d312ce994ea1f9971,7,4889,51,Critical
23,29,,Abitur,with,627762,1690213561055,1690212933293,L,männlich,deutsch,written,5e6a3e3d265930022e81c70b,64be9a10d3e12291dd6b77ca,64ba4c8d312ce994ea1f9971,7,7059,52,Critical
23,29,,Abitur,without,627762,1690213561055,1690212933293,A,männlich,deutsch,written,5e6a3e3d265930022e81c70b,64be9a10d3e12291dd6b77ca,64ba4c8d312ce994ea1f9971,7,4855,53,Filler
23,29,,Abitur,without,627762,1690213561055,1690212933293,D,männlich,deutsch,written,5e6a3e3d265930022e81c70b,64be9a10d3e12291dd6b77ca,64ba4c8d312ce994ea1f9971,5,5353,54,Filler
23,29,,Abitur,without,627762,1690213561055,1690212933293,B,männlich,deutsch,written,5e6a3e3d265930022e81c70b,64be9a10d3e12291dd6b77ca,64ba4c8d312ce994ea1f9971,4,12415,55,Filler
23,29,,Abitur,with,627762,1690213561055,1690212933293,F,männlich,deutsch,written,5e6a3e3d265930022e81c70b,64be9a10d3e12291dd6b77ca,64ba4c8d312ce994ea1f9971,7,3294,56,Critical
24,26,,Bachelor,with,1731153,1690213715547,1690211984394,F,männlich,Deutsch,auditory,5cc47a4f68d02c00131d0d2b,64be967a74f38f7d0978c4b6,64ba4c8d312ce994ea1f9971,6,816845,1,Critical
24,26,,Bachelor,with,1731153,1690213715547,1690211984394,B,männlich,Deutsch,auditory,5cc47a4f68d02c00131d0d2b,64be967a74f38f7d0978c4b6,64ba4c8d312ce994ea1f9971,6,11977,2,Filler
24,26,,Bachelor,without,1731153,1690213715547,1690211984394,L,männlich,Deutsch,auditory,5cc47a4f68d02c00131d0d2b,64be967a74f38f7d0978c4b6,64ba4c8d312ce994ea1f9971,7,9279,3,Critical
24,26,,Bachelor,without,1731153,1690213715547,1690211984394,L,männlich,Deutsch,auditory,5cc47a4f68d02c00131d0d2b,64be967a74f38f7d0978c4b6,64ba4c8d312ce994ea1f9971,6,12342,4,Critical
24,26,,Bachelor,with,1731153,1690213715547,1690211984394,L,männlich,Deutsch,auditory,5cc47a4f68d02c00131d0d2b,64be967a74f38f7d0978c4b6,64ba4c8d312ce994ea1f9971,7,11917,5,Critical
24,26,,Bachelor,with,1731153,1690213715547,1690211984394,L,männlich,Deutsch,auditory,5cc47a4f68d02c00131d0d2b,64be967a74f38f7d0978c4b6,64ba4c8d312ce994ea1f9971,7,14869,6,Critical
24,26,,Bachelor,with,1731153,1690213715547,1690211984394,B,männlich,Deutsch,auditory,5cc47a4f68d02c00131d0d2b,64be967a74f38f7d0978c4b6,64ba4c8d312ce994ea1f9971,7,11128,7,Filler
24,26,,Bachelor,with,1731153,1690213715547,1690211984394,L,männlich,Deutsch,auditory,5cc47a4f68d02c00131d0d2b,64be967a74f38f7d0978c4b6,64ba4c8d312ce994ea1f9971,5,13679,8,Critical
24,26,,Bachelor,with,1731153,1690213715547,1690211984394,B,männlich,Deutsch,auditory,5cc47a4f68d02c00131d0d2b,64be967a74f38f7d0978c4b6,64ba4c8d312ce994ea1f9971,2,9337,9,Filler
24,26,,Bachelor,with,1731153,1690213715547,1690211984394,F,männlich,Deutsch,auditory,5cc47a4f68d02c00131d0d2b,64be967a74f38f7d0978c4b6,64ba4c8d312ce994ea1f9971,7,9039,10,Critical
24,26,,Bachelor,with,1731153,1690213715547,1690211984394,D,männlich,Deutsch,auditory,5cc47a4f68d02c00131d0d2b,64be967a74f38f7d0978c4b6,64ba4c8d312ce994ea1f9971,1,8954,11,Filler
24,26,,Bachelor,with,1731153,1690213715547,1690211984394,L,männlich,Deutsch,auditory,5cc47a4f68d02c00131d0d2b,64be967a74f38f7d0978c4b6,64ba4c8d312ce994ea1f9971,6,7940,12,Critical
24,26,,Bachelor,with,1731153,1690213715547,1690211984394,A,männlich,Deutsch,auditory,5cc47a4f68d02c00131d0d2b,64be967a74f38f7d0978c4b6,64ba4c8d312ce994ea1f9971,7,7657,13,Filler
24,26,,Bachelor,with,1731153,1690213715547,1690211984394,C,männlich,Deutsch,auditory,5cc47a4f68d02c00131d0d2b,64be967a74f38f7d0978c4b6,64ba4c8d312ce994ea1f9971,3,13265,14,Filler
24,26,,Bachelor,with,1731153,1690213715547,1690211984394,D,männlich,Deutsch,auditory,5cc47a4f68d02c00131d0d2b,64be967a74f38f7d0978c4b6,64ba4c8d312ce994ea1f9971,2,9061,15,Filler
24,26,,Bachelor,with,1731153,1690213715547,1690211984394,L,männlich,Deutsch,auditory,5cc47a4f68d02c00131d0d2b,64be967a74f38f7d0978c4b6,64ba4c8d312ce994ea1f9971,6,8971,16,Critical
24,26,,Bachelor,with,1731153,1690213715547,1690211984394,A,männlich,Deutsch,auditory,5cc47a4f68d02c00131d0d2b,64be967a74f38f7d0978c4b6,64ba4c8d312ce994ea1f9971,4,8148,17,Filler
24,26,,Bachelor,without,1731153,1690213715547,1690211984394,F,männlich,Deutsch,auditory,5cc47a4f68d02c00131d0d2b,64be967a74f38f7d0978c4b6,64ba4c8d312ce994ea1f9971,7,8549,18,Critical
24,26,,Bachelor,with,1731153,1690213715547,1690211984394,E,männlich,Deutsch,auditory,5cc47a4f68d02c00131d0d2b,64be967a74f38f7d0978c4b6,64ba4c8d312ce994ea1f9971,2,8929,19,Filler
24,26,,Bachelor,with,1731153,1690213715547,1690211984394,C,männlich,Deutsch,auditory,5cc47a4f68d02c00131d0d2b,64be967a74f38f7d0978c4b6,64ba4c8d312ce994ea1f9971,3,9302,20,Filler
24,26,,Bachelor,with,1731153,1690213715547,1690211984394,F,männlich,Deutsch,auditory,5cc47a4f68d02c00131d0d2b,64be967a74f38f7d0978c4b6,64ba4c8d312ce994ea1f9971,7,7927,21,Critical
24,26,,Bachelor,without,1731153,1690213715547,1690211984394,F,männlich,Deutsch,auditory,5cc47a4f68d02c00131d0d2b,64be967a74f38f7d0978c4b6,64ba4c8d312ce994ea1f9971,7,8200,22,Critical
24,26,,Bachelor,without,1731153,1690213715547,1690211984394,F,männlich,Deutsch,auditory,5cc47a4f68d02c00131d0d2b,64be967a74f38f7d0978c4b6,64ba4c8d312ce994ea1f9971,7,7546,23,Critical
24,26,,Bachelor,without,1731153,1690213715547,1690211984394,L,männlich,Deutsch,auditory,5cc47a4f68d02c00131d0d2b,64be967a74f38f7d0978c4b6,64ba4c8d312ce994ea1f9971,7,7757,24,Critical
24,26,,Bachelor,with,1731153,1690213715547,1690211984394,E,männlich,Deutsch,auditory,5cc47a4f68d02c00131d0d2b,64be967a74f38f7d0978c4b6,64ba4c8d312ce994ea1f9971,1,11131,25,Filler
24,26,,Bachelor,without,1731153,1690213715547,1690211984394,F,männlich,Deutsch,auditory,5cc47a4f68d02c00131d0d2b,64be967a74f38f7d0978c4b6,64ba4c8d312ce994ea1f9971,7,7686,26,Critical
24,26,,Bachelor,with,1731153,1690213715547,1690211984394,D,männlich,Deutsch,auditory,5cc47a4f68d02c00131d0d2b,64be967a74f38f7d0978c4b6,64ba4c8d312ce994ea1f9971,1,9010,27,Filler
24,26,,Bachelor,with,1731153,1690213715547,1690211984394,D,männlich,Deutsch,auditory,5cc47a4f68d02c00131d0d2b,64be967a74f38f7d0978c4b6,64ba4c8d312ce994ea1f9971,1,10314,28,Filler
24,26,,Bachelor,with,1731153,1690213715547,1690211984394,E,männlich,Deutsch,auditory,5cc47a4f68d02c00131d0d2b,64be967a74f38f7d0978c4b6,64ba4c8d312ce994ea1f9971,4,7592,29,Filler
24,26,,Bachelor,without,1731153,1690213715547,1690211984394,F,männlich,Deutsch,auditory,5cc47a4f68d02c00131d0d2b,64be967a74f38f7d0978c4b6,64ba4c8d312ce994ea1f9971,7,7517,30,Critical
24,26,,Bachelor,without,1731153,1690213715547,1690211984394,F,männlich,Deutsch,auditory,5cc47a4f68d02c00131d0d2b,64be967a74f38f7d0978c4b6,64ba4c8d312ce994ea1f9971,7,8349,31,Critical
24,26,,Bachelor,with,1731153,1690213715547,1690211984394,L,männlich,Deutsch,auditory,5cc47a4f68d02c00131d0d2b,64be967a74f38f7d0978c4b6,64ba4c8d312ce994ea1f9971,7,7731,32,Critical
24,26,,Bachelor,with,1731153,1690213715547,1690211984394,L,männlich,Deutsch,auditory,5cc47a4f68d02c00131d0d2b,64be967a74f38f7d0978c4b6,64ba4c8d312ce994ea1f9971,7,7769,33,Critical
24,26,,Bachelor,with,1731153,1690213715547,1690211984394,A,männlich,Deutsch,auditory,5cc47a4f68d02c00131d0d2b,64be967a74f38f7d0978c4b6,64ba4c8d312ce994ea1f9971,7,9835,34,Filler
24,26,,Bachelor,without,1731153,1690213715547,1690211984394,F,männlich,Deutsch,auditory,5cc47a4f68d02c00131d0d2b,64be967a74f38f7d0978c4b6,64ba4c8d312ce994ea1f9971,7,8563,35,Critical
24,26,,Bachelor,without,1731153,1690213715547,1690211984394,L,männlich,Deutsch,auditory,5cc47a4f68d02c00131d0d2b,64be967a74f38f7d0978c4b6,64ba4c8d312ce994ea1f9971,7,6634,36,Critical
24,26,,Bachelor,with,1731153,1690213715547,1690211984394,B,männlich,Deutsch,auditory,5cc47a4f68d02c00131d0d2b,64be967a74f38f7d0978c4b6,64ba4c8d312ce994ea1f9971,3,10974,37,Filler
24,26,,Bachelor,with,1731153,1690213715547,1690211984394,C,männlich,Deutsch,auditory,5cc47a4f68d02c00131d0d2b,64be967a74f38f7d0978c4b6,64ba4c8d312ce994ea1f9971,3,12495,38,Filler
24,26,,Bachelor,with,1731153,1690213715547,1690211984394,D,männlich,Deutsch,auditory,5cc47a4f68d02c00131d0d2b,64be967a74f38f7d0978c4b6,64ba4c8d312ce994ea1f9971,5,11564,39,Filler
24,26,,Bachelor,with,1731153,1690213715547,1690211984394,A,männlich,Deutsch,auditory,5cc47a4f68d02c00131d0d2b,64be967a74f38f7d0978c4b6,64ba4c8d312ce994ea1f9971,6,9375,40,Filler
24,26,,Bachelor,with,1731153,1690213715547,1690211984394,E,männlich,Deutsch,auditory,5cc47a4f68d02c00131d0d2b,64be967a74f38f7d0978c4b6,64ba4c8d312ce994ea1f9971,2,9917,41,Filler
24,26,,Bachelor,with,1731153,1690213715547,1690211984394,C,männlich,Deutsch,auditory,5cc47a4f68d02c00131d0d2b,64be967a74f38f7d0978c4b6,64ba4c8d312ce994ea1f9971,7,11220,42,Filler
24,26,,Bachelor,with,1731153,1690213715547,1690211984394,F,männlich,Deutsch,auditory,5cc47a4f68d02c00131d0d2b,64be967a74f38f7d0978c4b6,64ba4c8d312ce994ea1f9971,7,7413,43,Critical
24,26,,Bachelor,with,1731153,1690213715547,1690211984394,A,männlich,Deutsch,auditory,5cc47a4f68d02c00131d0d2b,64be967a74f38f7d0978c4b6,64ba4c8d312ce994ea1f9971,7,6551,44,Filler
24,26,,Bachelor,without,1731153,1690213715547,1690211984394,L,männlich,Deutsch,auditory,5cc47a4f68d02c00131d0d2b,64be967a74f38f7d0978c4b6,64ba4c8d312ce994ea1f9971,7,6376,45,Critical
24,26,,Bachelor,with,1731153,1690213715547,1690211984394,D,männlich,Deutsch,auditory,5cc47a4f68d02c00131d0d2b,64be967a74f38f7d0978c4b6,64ba4c8d312ce994ea1f9971,7,12190,46,Filler
24,26,,Bachelor,with,1731153,1690213715547,1690211984394,B,männlich,Deutsch,auditory,5cc47a4f68d02c00131d0d2b,64be967a74f38f7d0978c4b6,64ba4c8d312ce994ea1f9971,6,10868,47,Filler
24,26,,Bachelor,with,1731153,1690213715547,1690211984394,F,männlich,Deutsch,auditory,5cc47a4f68d02c00131d0d2b,64be967a74f38f7d0978c4b6,64ba4c8d312ce994ea1f9971,7,8565,48,Critical
24,26,,Bachelor,without,1731153,1690213715547,1690211984394,L,männlich,Deutsch,auditory,5cc47a4f68d02c00131d0d2b,64be967a74f38f7d0978c4b6,64ba4c8d312ce994ea1f9971,7,8798,49,Critical
24,26,,Bachelor,with,1731153,1690213715547,1690211984394,C,männlich,Deutsch,auditory,5cc47a4f68d02c00131d0d2b,64be967a74f38f7d0978c4b6,64ba4c8d312ce994ea1f9971,7,9482,50,Filler
24,26,,Bachelor,with,1731153,1690213715547,1690211984394,E,männlich,Deutsch,auditory,5cc47a4f68d02c00131d0d2b,64be967a74f38f7d0978c4b6,64ba4c8d312ce994ea1f9971,1,9549,51,Filler
24,26,,Bachelor,with,1731153,1690213715547,1690211984394,B,männlich,Deutsch,auditory,5cc47a4f68d02c00131d0d2b,64be967a74f38f7d0978c4b6,64ba4c8d312ce994ea1f9971,3,8922,52,Filler
24,26,,Bachelor,with,1731153,1690213715547,1690211984394,C,männlich,Deutsch,auditory,5cc47a4f68d02c00131d0d2b,64be967a74f38f7d0978c4b6,64ba4c8d312ce994ea1f9971,4,14034,53,Filler
24,26,,Bachelor,without,1731153,1690213715547,1690211984394,L,männlich,Deutsch,auditory,5cc47a4f68d02c00131d0d2b,64be967a74f38f7d0978c4b6,64ba4c8d312ce994ea1f9971,7,6383,54,Critical
24,26,,Bachelor,with,1731153,1690213715547,1690211984394,F,männlich,Deutsch,auditory,5cc47a4f68d02c00131d0d2b,64be967a74f38f7d0978c4b6,64ba4c8d312ce994ea1f9971,7,11486,55,Critical
24,26,,Bachelor,with,1731153,1690213715547,1690211984394,F,männlich,Deutsch,auditory,5cc47a4f68d02c00131d0d2b,64be967a74f38f7d0978c4b6,64ba4c8d312ce994ea1f9971,7,8992,56,Critical
