submission_id;age;comments;education;emphasis;experiment_duration;experiment_end_time;experiment_start_time;fragmentType_Acceptability;gender;languages;modality;prolific_pid;prolific_session_id;prolific_study_id;response;responseTime;trial_number;trial_type
21;29;;Höherer Abschluss;with;555035;1,69021E+12;1,69021E+12;A;männlich;Deutsch;auditory;5d8c96e60ef92e001a7b8876;64be99c329ecc01727f259be;64ba4c8d312ce994ea1f9971;7;13319;1;Filler
21;29;;Höherer Abschluss;without;555035;1,69021E+12;1,69021E+12;L;männlich;Deutsch;auditory;5d8c96e60ef92e001a7b8876;64be99c329ecc01727f259be;64ba4c8d312ce994ea1f9971;7;7873;2;Critical
21;29;;Höherer Abschluss;with;555035;1,69021E+12;1,69021E+12;L;männlich;Deutsch;auditory;5d8c96e60ef92e001a7b8876;64be99c329ecc01727f259be;64ba4c8d312ce994ea1f9971;7;9063;3;Critical
21;29;;Höherer Abschluss;with;555035;1,69021E+12;1,69021E+12;L;männlich;Deutsch;auditory;5d8c96e60ef92e001a7b8876;64be99c329ecc01727f259be;64ba4c8d312ce994ea1f9971;7;8302;4;Critical
21;29;;Höherer Abschluss;with;555035;1,69021E+12;1,69021E+12;A;männlich;Deutsch;auditory;5d8c96e60ef92e001a7b8876;64be99c329ecc01727f259be;64ba4c8d312ce994ea1f9971;6;8759;5;Filler
21;29;;Höherer Abschluss;with;555035;1,69021E+12;1,69021E+12;F;männlich;Deutsch;auditory;5d8c96e60ef92e001a7b8876;64be99c329ecc01727f259be;64ba4c8d312ce994ea1f9971;7;8992;6;Critical
21;29;;Höherer Abschluss;with;555035;1,69021E+12;1,69021E+12;F;männlich;Deutsch;auditory;5d8c96e60ef92e001a7b8876;64be99c329ecc01727f259be;64ba4c8d312ce994ea1f9971;7;8231;7;Critical
21;29;;Höherer Abschluss;with;555035;1,69021E+12;1,69021E+12;B;männlich;Deutsch;auditory;5d8c96e60ef92e001a7b8876;64be99c329ecc01727f259be;64ba4c8d312ce994ea1f9971;7;10730;8;Filler
21;29;;Höherer Abschluss;without;555035;1,69021E+12;1,69021E+12;F;männlich;Deutsch;auditory;5d8c96e60ef92e001a7b8876;64be99c329ecc01727f259be;64ba4c8d312ce994ea1f9971;7;7577;9;Critical
21;29;;Höherer Abschluss;with;555035;1,69021E+12;1,69021E+12;C;männlich;Deutsch;auditory;5d8c96e60ef92e001a7b8876;64be99c329ecc01727f259be;64ba4c8d312ce994ea1f9971;6;14030;10;Filler
21;29;;Höherer Abschluss;with;555035;1,69021E+12;1,69021E+12;C;männlich;Deutsch;auditory;5d8c96e60ef92e001a7b8876;64be99c329ecc01727f259be;64ba4c8d312ce994ea1f9971;3;10633;11;Filler
21;29;;Höherer Abschluss;without;555035;1,69021E+12;1,69021E+12;F;männlich;Deutsch;auditory;5d8c96e60ef92e001a7b8876;64be99c329ecc01727f259be;64ba4c8d312ce994ea1f9971;7;7464;12;Critical
21;29;;Höherer Abschluss;with;555035;1,69021E+12;1,69021E+12;C;männlich;Deutsch;auditory;5d8c96e60ef92e001a7b8876;64be99c329ecc01727f259be;64ba4c8d312ce994ea1f9971;5;10422;13;Filler
21;29;;Höherer Abschluss;with;555035;1,69021E+12;1,69021E+12;L;männlich;Deutsch;auditory;5d8c96e60ef92e001a7b8876;64be99c329ecc01727f259be;64ba4c8d312ce994ea1f9971;7;6640;14;Critical
21;29;;Höherer Abschluss;with;555035;1,69021E+12;1,69021E+12;F;männlich;Deutsch;auditory;5d8c96e60ef92e001a7b8876;64be99c329ecc01727f259be;64ba4c8d312ce994ea1f9971;7;8010;15;Critical
21;29;;Höherer Abschluss;with;555035;1,69021E+12;1,69021E+12;E;männlich;Deutsch;auditory;5d8c96e60ef92e001a7b8876;64be99c329ecc01727f259be;64ba4c8d312ce994ea1f9971;2;9265;16;Filler
21;29;;Höherer Abschluss;with;555035;1,69021E+12;1,69021E+12;D;männlich;Deutsch;auditory;5d8c96e60ef92e001a7b8876;64be99c329ecc01727f259be;64ba4c8d312ce994ea1f9971;4;8483;17;Filler
21;29;;Höherer Abschluss;with;555035;1,69021E+12;1,69021E+12;L;männlich;Deutsch;auditory;5d8c96e60ef92e001a7b8876;64be99c329ecc01727f259be;64ba4c8d312ce994ea1f9971;7;8388;18;Critical
21;29;;Höherer Abschluss;with;555035;1,69021E+12;1,69021E+12;B;männlich;Deutsch;auditory;5d8c96e60ef92e001a7b8876;64be99c329ecc01727f259be;64ba4c8d312ce994ea1f9971;5;10044;19;Filler
21;29;;Höherer Abschluss;with;555035;1,69021E+12;1,69021E+12;F;männlich;Deutsch;auditory;5d8c96e60ef92e001a7b8876;64be99c329ecc01727f259be;64ba4c8d312ce994ea1f9971;7;7384;20;Critical
21;29;;Höherer Abschluss;with;555035;1,69021E+12;1,69021E+12;C;männlich;Deutsch;auditory;5d8c96e60ef92e001a7b8876;64be99c329ecc01727f259be;64ba4c8d312ce994ea1f9971;5;9989;21;Filler
21;29;;Höherer Abschluss;without;555035;1,69021E+12;1,69021E+12;L;männlich;Deutsch;auditory;5d8c96e60ef92e001a7b8876;64be99c329ecc01727f259be;64ba4c8d312ce994ea1f9971;7;6725;22;Critical
21;29;;Höherer Abschluss;with;555035;1,69021E+12;1,69021E+12;E;männlich;Deutsch;auditory;5d8c96e60ef92e001a7b8876;64be99c329ecc01727f259be;64ba4c8d312ce994ea1f9971;4;9955;23;Filler
21;29;;Höherer Abschluss;with;555035;1,69021E+12;1,69021E+12;L;männlich;Deutsch;auditory;5d8c96e60ef92e001a7b8876;64be99c329ecc01727f259be;64ba4c8d312ce994ea1f9971;7;7898;24;Critical
21;29;;Höherer Abschluss;with;555035;1,69021E+12;1,69021E+12;B;männlich;Deutsch;auditory;5d8c96e60ef92e001a7b8876;64be99c329ecc01727f259be;64ba4c8d312ce994ea1f9971;3;7191;25;Filler
21;29;;Höherer Abschluss;without;555035;1,69021E+12;1,69021E+12;F;männlich;Deutsch;auditory;5d8c96e60ef92e001a7b8876;64be99c329ecc01727f259be;64ba4c8d312ce994ea1f9971;7;8456;26;Critical
21;29;;Höherer Abschluss;without;555035;1,69021E+12;1,69021E+12;F;männlich;Deutsch;auditory;5d8c96e60ef92e001a7b8876;64be99c329ecc01727f259be;64ba4c8d312ce994ea1f9971;7;7140;27;Critical
21;29;;Höherer Abschluss;with;555035;1,69021E+12;1,69021E+12;A;männlich;Deutsch;auditory;5d8c96e60ef92e001a7b8876;64be99c329ecc01727f259be;64ba4c8d312ce994ea1f9971;7;9412;28;Filler
21;29;;Höherer Abschluss;without;555035;1,69021E+12;1,69021E+12;F;männlich;Deutsch;auditory;5d8c96e60ef92e001a7b8876;64be99c329ecc01727f259be;64ba4c8d312ce994ea1f9971;7;8011;29;Critical
21;29;;Höherer Abschluss;with;555035;1,69021E+12;1,69021E+12;L;männlich;Deutsch;auditory;5d8c96e60ef92e001a7b8876;64be99c329ecc01727f259be;64ba4c8d312ce994ea1f9971;7;7614;30;Critical
21;29;;Höherer Abschluss;with;555035;1,69021E+12;1,69021E+12;C;männlich;Deutsch;auditory;5d8c96e60ef92e001a7b8876;64be99c329ecc01727f259be;64ba4c8d312ce994ea1f9971;6;11189;31;Filler
21;29;;Höherer Abschluss;with;555035;1,69021E+12;1,69021E+12;E;männlich;Deutsch;auditory;5d8c96e60ef92e001a7b8876;64be99c329ecc01727f259be;64ba4c8d312ce994ea1f9971;3;13713;32;Filler
21;29;;Höherer Abschluss;with;555035;1,69021E+12;1,69021E+12;F;männlich;Deutsch;auditory;5d8c96e60ef92e001a7b8876;64be99c329ecc01727f259be;64ba4c8d312ce994ea1f9971;7;8013;33;Critical
21;29;;Höherer Abschluss;with;555035;1,69021E+12;1,69021E+12;D;männlich;Deutsch;auditory;5d8c96e60ef92e001a7b8876;64be99c329ecc01727f259be;64ba4c8d312ce994ea1f9971;3;8820;34;Filler
21;29;;Höherer Abschluss;without;555035;1,69021E+12;1,69021E+12;L;männlich;Deutsch;auditory;5d8c96e60ef92e001a7b8876;64be99c329ecc01727f259be;64ba4c8d312ce994ea1f9971;7;7513;35;Critical
21;29;;Höherer Abschluss;with;555035;1,69021E+12;1,69021E+12;E;männlich;Deutsch;auditory;5d8c96e60ef92e001a7b8876;64be99c329ecc01727f259be;64ba4c8d312ce994ea1f9971;5;9580;36;Filler
21;29;;Höherer Abschluss;with;555035;1,69021E+12;1,69021E+12;D;männlich;Deutsch;auditory;5d8c96e60ef92e001a7b8876;64be99c329ecc01727f259be;64ba4c8d312ce994ea1f9971;5;9100;37;Filler
21;29;;Höherer Abschluss;with;555035;1,69021E+12;1,69021E+12;D;männlich;Deutsch;auditory;5d8c96e60ef92e001a7b8876;64be99c329ecc01727f259be;64ba4c8d312ce994ea1f9971;2;8254;38;Filler
21;29;;Höherer Abschluss;with;555035;1,69021E+12;1,69021E+12;C;männlich;Deutsch;auditory;5d8c96e60ef92e001a7b8876;64be99c329ecc01727f259be;64ba4c8d312ce994ea1f9971;5;8292;39;Filler
21;29;;Höherer Abschluss;with;555035;1,69021E+12;1,69021E+12;D;männlich;Deutsch;auditory;5d8c96e60ef92e001a7b8876;64be99c329ecc01727f259be;64ba4c8d312ce994ea1f9971;2;8925;40;Filler
21;29;;Höherer Abschluss;without;555035;1,69021E+12;1,69021E+12;L;männlich;Deutsch;auditory;5d8c96e60ef92e001a7b8876;64be99c329ecc01727f259be;64ba4c8d312ce994ea1f9971;7;6814;41;Critical
21;29;;Höherer Abschluss;without;555035;1,69021E+12;1,69021E+12;F;männlich;Deutsch;auditory;5d8c96e60ef92e001a7b8876;64be99c329ecc01727f259be;64ba4c8d312ce994ea1f9971;7;7296;42;Critical
21;29;;Höherer Abschluss;with;555035;1,69021E+12;1,69021E+12;B;männlich;Deutsch;auditory;5d8c96e60ef92e001a7b8876;64be99c329ecc01727f259be;64ba4c8d312ce994ea1f9971;6;7593;43;Filler
21;29;;Höherer Abschluss;without;555035;1,69021E+12;1,69021E+12;L;männlich;Deutsch;auditory;5d8c96e60ef92e001a7b8876;64be99c329ecc01727f259be;64ba4c8d312ce994ea1f9971;7;7160;44;Critical
21;29;;Höherer Abschluss;with;555035;1,69021E+12;1,69021E+12;F;männlich;Deutsch;auditory;5d8c96e60ef92e001a7b8876;64be99c329ecc01727f259be;64ba4c8d312ce994ea1f9971;7;8104;45;Critical
21;29;;Höherer Abschluss;with;555035;1,69021E+12;1,69021E+12;D;männlich;Deutsch;auditory;5d8c96e60ef92e001a7b8876;64be99c329ecc01727f259be;64ba4c8d312ce994ea1f9971;2;10696;46;Filler
21;29;;Höherer Abschluss;with;555035;1,69021E+12;1,69021E+12;L;männlich;Deutsch;auditory;5d8c96e60ef92e001a7b8876;64be99c329ecc01727f259be;64ba4c8d312ce994ea1f9971;7;7507;47;Critical
21;29;;Höherer Abschluss;without;555035;1,69021E+12;1,69021E+12;L;männlich;Deutsch;auditory;5d8c96e60ef92e001a7b8876;64be99c329ecc01727f259be;64ba4c8d312ce994ea1f9971;7;7880;48;Critical
21;29;;Höherer Abschluss;with;555035;1,69021E+12;1,69021E+12;B;männlich;Deutsch;auditory;5d8c96e60ef92e001a7b8876;64be99c329ecc01727f259be;64ba4c8d312ce994ea1f9971;7;10021;49;Filler
21;29;;Höherer Abschluss;with;555035;1,69021E+12;1,69021E+12;B;männlich;Deutsch;auditory;5d8c96e60ef92e001a7b8876;64be99c329ecc01727f259be;64ba4c8d312ce994ea1f9971;7;10249;50;Filler
21;29;;Höherer Abschluss;with;555035;1,69021E+12;1,69021E+12;A;männlich;Deutsch;auditory;5d8c96e60ef92e001a7b8876;64be99c329ecc01727f259be;64ba4c8d312ce994ea1f9971;7;9195;51;Filler
21;29;;Höherer Abschluss;with;555035;1,69021E+12;1,69021E+12;F;männlich;Deutsch;auditory;5d8c96e60ef92e001a7b8876;64be99c329ecc01727f259be;64ba4c8d312ce994ea1f9971;7;7950;52;Critical
21;29;;Höherer Abschluss;without;555035;1,69021E+12;1,69021E+12;L;männlich;Deutsch;auditory;5d8c96e60ef92e001a7b8876;64be99c329ecc01727f259be;64ba4c8d312ce994ea1f9971;7;7865;53;Critical
21;29;;Höherer Abschluss;with;555035;1,69021E+12;1,69021E+12;E;männlich;Deutsch;auditory;5d8c96e60ef92e001a7b8876;64be99c329ecc01727f259be;64ba4c8d312ce994ea1f9971;4;8487;54;Filler
21;29;;Höherer Abschluss;without;555035;1,69021E+12;1,69021E+12;F;männlich;Deutsch;auditory;5d8c96e60ef92e001a7b8876;64be99c329ecc01727f259be;64ba4c8d312ce994ea1f9971;7;7021;55;Critical
21;29;;Höherer Abschluss;with;555035;1,69021E+12;1,69021E+12;A;männlich;Deutsch;auditory;5d8c96e60ef92e001a7b8876;64be99c329ecc01727f259be;64ba4c8d312ce994ea1f9971;7;7528;56;Filler
22;21;;Abitur;without;326439;1,69021E+12;1,69021E+12;F;männlich;Deutsch;written;5bb8a14e002f190001a30ec7;64be96bd92df55f996900995;64ba4c8d312ce994ea1f9971;6;12332;1;Critical
22;21;;Abitur;without;326439;1,69021E+12;1,69021E+12;D;männlich;Deutsch;written;5bb8a14e002f190001a30ec7;64be96bd92df55f996900995;64ba4c8d312ce994ea1f9971;6;3268;2;Filler
22;21;;Abitur;without;326439;1,69021E+12;1,69021E+12;L;männlich;Deutsch;written;5bb8a14e002f190001a30ec7;64be96bd92df55f996900995;64ba4c8d312ce994ea1f9971;7;4228;3;Critical
22;21;;Abitur;without;326439;1,69021E+12;1,69021E+12;L;männlich;Deutsch;written;5bb8a14e002f190001a30ec7;64be96bd92df55f996900995;64ba4c8d312ce994ea1f9971;6;5618;4;Critical
22;21;;Abitur;without;326439;1,69021E+12;1,69021E+12;F;männlich;Deutsch;written;5bb8a14e002f190001a30ec7;64be96bd92df55f996900995;64ba4c8d312ce994ea1f9971;6;65460;5;Critical
22;21;;Abitur;without;326439;1,69021E+12;1,69021E+12;L;männlich;Deutsch;written;5bb8a14e002f190001a30ec7;64be96bd92df55f996900995;64ba4c8d312ce994ea1f9971;6;3994;6;Critical
22;21;;Abitur;with;326439;1,69021E+12;1,69021E+12;L;männlich;Deutsch;written;5bb8a14e002f190001a30ec7;64be96bd92df55f996900995;64ba4c8d312ce994ea1f9971;6;3874;7;Critical
22;21;;Abitur;without;326439;1,69021E+12;1,69021E+12;L;männlich;Deutsch;written;5bb8a14e002f190001a30ec7;64be96bd92df55f996900995;64ba4c8d312ce994ea1f9971;7;2964;8;Critical
22;21;;Abitur;without;326439;1,69021E+12;1,69021E+12;D;männlich;Deutsch;written;5bb8a14e002f190001a30ec7;64be96bd92df55f996900995;64ba4c8d312ce994ea1f9971;3;3800;9;Filler
22;21;;Abitur;without;326439;1,69021E+12;1,69021E+12;F;männlich;Deutsch;written;5bb8a14e002f190001a30ec7;64be96bd92df55f996900995;64ba4c8d312ce994ea1f9971;5;2087;10;Critical
22;21;;Abitur;without;326439;1,69021E+12;1,69021E+12;L;männlich;Deutsch;written;5bb8a14e002f190001a30ec7;64be96bd92df55f996900995;64ba4c8d312ce994ea1f9971;6;2942;11;Critical
22;21;;Abitur;without;326439;1,69021E+12;1,69021E+12;B;männlich;Deutsch;written;5bb8a14e002f190001a30ec7;64be96bd92df55f996900995;64ba4c8d312ce994ea1f9971;4;8561;12;Filler
22;21;;Abitur;without;326439;1,69021E+12;1,69021E+12;C;männlich;Deutsch;written;5bb8a14e002f190001a30ec7;64be96bd92df55f996900995;64ba4c8d312ce994ea1f9971;2;2254;13;Filler
22;21;;Abitur;without;326439;1,69021E+12;1,69021E+12;E;männlich;Deutsch;written;5bb8a14e002f190001a30ec7;64be96bd92df55f996900995;64ba4c8d312ce994ea1f9971;1;6457;14;Filler
22;21;;Abitur;without;326439;1,69021E+12;1,69021E+12;E;männlich;Deutsch;written;5bb8a14e002f190001a30ec7;64be96bd92df55f996900995;64ba4c8d312ce994ea1f9971;4;4734;15;Filler
22;21;;Abitur;without;326439;1,69021E+12;1,69021E+12;A;männlich;Deutsch;written;5bb8a14e002f190001a30ec7;64be96bd92df55f996900995;64ba4c8d312ce994ea1f9971;6;2628;16;Filler
22;21;;Abitur;without;326439;1,69021E+12;1,69021E+12;D;männlich;Deutsch;written;5bb8a14e002f190001a30ec7;64be96bd92df55f996900995;64ba4c8d312ce994ea1f9971;1;2675;17;Filler
22;21;;Abitur;without;326439;1,69021E+12;1,69021E+12;C;männlich;Deutsch;written;5bb8a14e002f190001a30ec7;64be96bd92df55f996900995;64ba4c8d312ce994ea1f9971;2;3061;18;Filler
22;21;;Abitur;with;326439;1,69021E+12;1,69021E+12;L;männlich;Deutsch;written;5bb8a14e002f190001a30ec7;64be96bd92df55f996900995;64ba4c8d312ce994ea1f9971;6;3899;19;Critical
22;21;;Abitur;without;326439;1,69021E+12;1,69021E+12;D;männlich;Deutsch;written;5bb8a14e002f190001a30ec7;64be96bd92df55f996900995;64ba4c8d312ce994ea1f9971;2;3848;20;Filler
22;21;;Abitur;without;326439;1,69021E+12;1,69021E+12;D;männlich;Deutsch;written;5bb8a14e002f190001a30ec7;64be96bd92df55f996900995;64ba4c8d312ce994ea1f9971;2;3419;21;Filler
22;21;;Abitur;with;326439;1,69021E+12;1,69021E+12;F;männlich;Deutsch;written;5bb8a14e002f190001a30ec7;64be96bd92df55f996900995;64ba4c8d312ce994ea1f9971;6;2772;22;Critical
22;21;;Abitur;without;326439;1,69021E+12;1,69021E+12;C;männlich;Deutsch;written;5bb8a14e002f190001a30ec7;64be96bd92df55f996900995;64ba4c8d312ce994ea1f9971;2;5695;23;Filler
22;21;;Abitur;without;326439;1,69021E+12;1,69021E+12;F;männlich;Deutsch;written;5bb8a14e002f190001a30ec7;64be96bd92df55f996900995;64ba4c8d312ce994ea1f9971;6;4303;24;Critical
22;21;;Abitur;with;326439;1,69021E+12;1,69021E+12;F;männlich;Deutsch;written;5bb8a14e002f190001a30ec7;64be96bd92df55f996900995;64ba4c8d312ce994ea1f9971;6;2887;25;Critical
22;21;;Abitur;with;326439;1,69021E+12;1,69021E+12;L;männlich;Deutsch;written;5bb8a14e002f190001a30ec7;64be96bd92df55f996900995;64ba4c8d312ce994ea1f9971;6;7546;26;Critical
22;21;;Abitur;without;326439;1,69021E+12;1,69021E+12;B;männlich;Deutsch;written;5bb8a14e002f190001a30ec7;64be96bd92df55f996900995;64ba4c8d312ce994ea1f9971;3;3636;27;Filler
22;21;;Abitur;without;326439;1,69021E+12;1,69021E+12;B;männlich;Deutsch;written;5bb8a14e002f190001a30ec7;64be96bd92df55f996900995;64ba4c8d312ce994ea1f9971;5;3952;28;Filler
22;21;;Abitur;without;326439;1,69021E+12;1,69021E+12;L;männlich;Deutsch;written;5bb8a14e002f190001a30ec7;64be96bd92df55f996900995;64ba4c8d312ce994ea1f9971;6;2870;29;Critical
22;21;;Abitur;without;326439;1,69021E+12;1,69021E+12;A;männlich;Deutsch;written;5bb8a14e002f190001a30ec7;64be96bd92df55f996900995;64ba4c8d312ce994ea1f9971;7;3673;30;Filler
22;21;;Abitur;without;326439;1,69021E+12;1,69021E+12;C;männlich;Deutsch;written;5bb8a14e002f190001a30ec7;64be96bd92df55f996900995;64ba4c8d312ce994ea1f9971;4;3744;31;Filler
22;21;;Abitur;with;326439;1,69021E+12;1,69021E+12;F;männlich;Deutsch;written;5bb8a14e002f190001a30ec7;64be96bd92df55f996900995;64ba4c8d312ce994ea1f9971;5;2868;32;Critical
22;21;;Abitur;without;326439;1,69021E+12;1,69021E+12;E;männlich;Deutsch;written;5bb8a14e002f190001a30ec7;64be96bd92df55f996900995;64ba4c8d312ce994ea1f9971;3;5158;33;Filler
22;21;;Abitur;without;326439;1,69021E+12;1,69021E+12;F;männlich;Deutsch;written;5bb8a14e002f190001a30ec7;64be96bd92df55f996900995;64ba4c8d312ce994ea1f9971;6;5951;34;Critical
22;21;;Abitur;without;326439;1,69021E+12;1,69021E+12;E;männlich;Deutsch;written;5bb8a14e002f190001a30ec7;64be96bd92df55f996900995;64ba4c8d312ce994ea1f9971;3;5049;35;Filler
22;21;;Abitur;without;326439;1,69021E+12;1,69021E+12;D;männlich;Deutsch;written;5bb8a14e002f190001a30ec7;64be96bd92df55f996900995;64ba4c8d312ce994ea1f9971;3;3804;36;Filler
22;21;;Abitur;with;326439;1,69021E+12;1,69021E+12;F;männlich;Deutsch;written;5bb8a14e002f190001a30ec7;64be96bd92df55f996900995;64ba4c8d312ce994ea1f9971;6;4083;37;Critical
22;21;;Abitur;without;326439;1,69021E+12;1,69021E+12;C;männlich;Deutsch;written;5bb8a14e002f190001a30ec7;64be96bd92df55f996900995;64ba4c8d312ce994ea1f9971;3;3596;38;Filler
22;21;;Abitur;with;326439;1,69021E+12;1,69021E+12;F;männlich;Deutsch;written;5bb8a14e002f190001a30ec7;64be96bd92df55f996900995;64ba4c8d312ce994ea1f9971;6;2430;39;Critical
22;21;;Abitur;without;326439;1,69021E+12;1,69021E+12;A;männlich;Deutsch;written;5bb8a14e002f190001a30ec7;64be96bd92df55f996900995;64ba4c8d312ce994ea1f9971;5;3065;40;Filler
22;21;;Abitur;without;326439;1,69021E+12;1,69021E+12;B;männlich;Deutsch;written;5bb8a14e002f190001a30ec7;64be96bd92df55f996900995;64ba4c8d312ce994ea1f9971;3;2683;41;Filler
22;21;;Abitur;without;326439;1,69021E+12;1,69021E+12;A;männlich;Deutsch;written;5bb8a14e002f190001a30ec7;64be96bd92df55f996900995;64ba4c8d312ce994ea1f9971;7;3918;42;Filler
22;21;;Abitur;without;326439;1,69021E+12;1,69021E+12;E;männlich;Deutsch;written;5bb8a14e002f190001a30ec7;64be96bd92df55f996900995;64ba4c8d312ce994ea1f9971;4;4612;43;Filler
22;21;;Abitur;without;326439;1,69021E+12;1,69021E+12;F;männlich;Deutsch;written;5bb8a14e002f190001a30ec7;64be96bd92df55f996900995;64ba4c8d312ce994ea1f9971;7;3788;44;Critical
22;21;;Abitur;with;326439;1,69021E+12;1,69021E+12;L;männlich;Deutsch;written;5bb8a14e002f190001a30ec7;64be96bd92df55f996900995;64ba4c8d312ce994ea1f9971;6;13759;45;Critical
22;21;;Abitur;without;326439;1,69021E+12;1,69021E+12;C;männlich;Deutsch;written;5bb8a14e002f190001a30ec7;64be96bd92df55f996900995;64ba4c8d312ce994ea1f9971;2;17558;46;Filler
22;21;;Abitur;with;326439;1,69021E+12;1,69021E+12;F;männlich;Deutsch;written;5bb8a14e002f190001a30ec7;64be96bd92df55f996900995;64ba4c8d312ce994ea1f9971;6;3391;47;Critical
22;21;;Abitur;without;326439;1,69021E+12;1,69021E+12;F;männlich;Deutsch;written;5bb8a14e002f190001a30ec7;64be96bd92df55f996900995;64ba4c8d312ce994ea1f9971;7;3303;48;Critical
22;21;;Abitur;without;326439;1,69021E+12;1,69021E+12;A;männlich;Deutsch;written;5bb8a14e002f190001a30ec7;64be96bd92df55f996900995;64ba4c8d312ce994ea1f9971;7;2075;49;Filler
22;21;;Abitur;with;326439;1,69021E+12;1,69021E+12;L;männlich;Deutsch;written;5bb8a14e002f190001a30ec7;64be96bd92df55f996900995;64ba4c8d312ce994ea1f9971;4;3747;50;Critical
22;21;;Abitur;without;326439;1,69021E+12;1,69021E+12;L;männlich;Deutsch;written;5bb8a14e002f190001a30ec7;64be96bd92df55f996900995;64ba4c8d312ce994ea1f9971;6;2103;51;Critical
22;21;;Abitur;with;326439;1,69021E+12;1,69021E+12;L;männlich;Deutsch;written;5bb8a14e002f190001a30ec7;64be96bd92df55f996900995;64ba4c8d312ce994ea1f9971;6;3044;52;Critical
22;21;;Abitur;without;326439;1,69021E+12;1,69021E+12;B;männlich;Deutsch;written;5bb8a14e002f190001a30ec7;64be96bd92df55f996900995;64ba4c8d312ce994ea1f9971;3;4035;53;Filler
22;21;;Abitur;with;326439;1,69021E+12;1,69021E+12;F;männlich;Deutsch;written;5bb8a14e002f190001a30ec7;64be96bd92df55f996900995;64ba4c8d312ce994ea1f9971;6;4321;54;Critical
22;21;;Abitur;with;326439;1,69021E+12;1,69021E+12;L;männlich;Deutsch;written;5bb8a14e002f190001a30ec7;64be96bd92df55f996900995;64ba4c8d312ce994ea1f9971;6;4443;55;Critical
22;21;;Abitur;without;326439;1,69021E+12;1,69021E+12;B;männlich;Deutsch;written;5bb8a14e002f190001a30ec7;64be96bd92df55f996900995;64ba4c8d312ce994ea1f9971;7;4630;56;Filler
23;29;;Abitur;without;627762;1,69021E+12;1,69021E+12;B;männlich;deutsch;written;5e6a3e3d265930022e81c70b;64be9a10d3e12291dd6b77ca;64ba4c8d312ce994ea1f9971;6;32136;1;Filler
23;29;;Abitur;with;627762;1,69021E+12;1,69021E+12;L;männlich;deutsch;written;5e6a3e3d265930022e81c70b;64be9a10d3e12291dd6b77ca;64ba4c8d312ce994ea1f9971;7;10128;2;Critical
23;29;;Abitur;without;627762;1,69021E+12;1,69021E+12;C;männlich;deutsch;written;5e6a3e3d265930022e81c70b;64be9a10d3e12291dd6b77ca;64ba4c8d312ce994ea1f9971;3;7020;3;Filler
23;29;;Abitur;without;627762;1,69021E+12;1,69021E+12;D;männlich;deutsch;written;5e6a3e3d265930022e81c70b;64be9a10d3e12291dd6b77ca;64ba4c8d312ce994ea1f9971;6;10578;4;Filler
23;29;;Abitur;with;627762;1,69021E+12;1,69021E+12;L;männlich;deutsch;written;5e6a3e3d265930022e81c70b;64be9a10d3e12291dd6b77ca;64ba4c8d312ce994ea1f9971;7;11949;5;Critical
23;29;;Abitur;without;627762;1,69021E+12;1,69021E+12;L;männlich;deutsch;written;5e6a3e3d265930022e81c70b;64be9a10d3e12291dd6b77ca;64ba4c8d312ce994ea1f9971;7;8304;6;Critical
23;29;;Abitur;without;627762;1,69021E+12;1,69021E+12;A;männlich;deutsch;written;5e6a3e3d265930022e81c70b;64be9a10d3e12291dd6b77ca;64ba4c8d312ce994ea1f9971;7;11643;7;Filler
23;29;;Abitur;with;627762;1,69021E+12;1,69021E+12;L;männlich;deutsch;written;5e6a3e3d265930022e81c70b;64be9a10d3e12291dd6b77ca;64ba4c8d312ce994ea1f9971;7;12858;8;Critical
23;29;;Abitur;without;627762;1,69021E+12;1,69021E+12;F;männlich;deutsch;written;5e6a3e3d265930022e81c70b;64be9a10d3e12291dd6b77ca;64ba4c8d312ce994ea1f9971;6;7447;9;Critical
23;29;;Abitur;without;627762;1,69021E+12;1,69021E+12;E;männlich;deutsch;written;5e6a3e3d265930022e81c70b;64be9a10d3e12291dd6b77ca;64ba4c8d312ce994ea1f9971;3;7373;10;Filler
23;29;;Abitur;with;627762;1,69021E+12;1,69021E+12;L;männlich;deutsch;written;5e6a3e3d265930022e81c70b;64be9a10d3e12291dd6b77ca;64ba4c8d312ce994ea1f9971;7;5999;11;Critical
23;29;;Abitur;without;627762;1,69021E+12;1,69021E+12;C;männlich;deutsch;written;5e6a3e3d265930022e81c70b;64be9a10d3e12291dd6b77ca;64ba4c8d312ce994ea1f9971;5;9205;12;Filler
23;29;;Abitur;without;627762;1,69021E+12;1,69021E+12;L;männlich;deutsch;written;5e6a3e3d265930022e81c70b;64be9a10d3e12291dd6b77ca;64ba4c8d312ce994ea1f9971;7;7780;13;Critical
23;29;;Abitur;without;627762;1,69021E+12;1,69021E+12;E;männlich;deutsch;written;5e6a3e3d265930022e81c70b;64be9a10d3e12291dd6b77ca;64ba4c8d312ce994ea1f9971;4;10836;14;Filler
23;29;;Abitur;without;627762;1,69021E+12;1,69021E+12;L;männlich;deutsch;written;5e6a3e3d265930022e81c70b;64be9a10d3e12291dd6b77ca;64ba4c8d312ce994ea1f9971;7;11005;15;Critical
23;29;;Abitur;without;627762;1,69021E+12;1,69021E+12;B;männlich;deutsch;written;5e6a3e3d265930022e81c70b;64be9a10d3e12291dd6b77ca;64ba4c8d312ce994ea1f9971;3;10871;16;Filler
23;29;;Abitur;without;627762;1,69021E+12;1,69021E+12;E;männlich;deutsch;written;5e6a3e3d265930022e81c70b;64be9a10d3e12291dd6b77ca;64ba4c8d312ce994ea1f9971;6;12776;17;Filler
23;29;;Abitur;without;627762;1,69021E+12;1,69021E+12;F;männlich;deutsch;written;5e6a3e3d265930022e81c70b;64be9a10d3e12291dd6b77ca;64ba4c8d312ce994ea1f9971;7;9444;18;Critical
23;29;;Abitur;without;627762;1,69021E+12;1,69021E+12;E;männlich;deutsch;written;5e6a3e3d265930022e81c70b;64be9a10d3e12291dd6b77ca;64ba4c8d312ce994ea1f9971;5;6989;19;Filler
23;29;;Abitur;without;627762;1,69021E+12;1,69021E+12;D;männlich;deutsch;written;5e6a3e3d265930022e81c70b;64be9a10d3e12291dd6b77ca;64ba4c8d312ce994ea1f9971;6;12322;20;Filler
23;29;;Abitur;without;627762;1,69021E+12;1,69021E+12;F;männlich;deutsch;written;5e6a3e3d265930022e81c70b;64be9a10d3e12291dd6b77ca;64ba4c8d312ce994ea1f9971;7;7207;21;Critical
23;29;;Abitur;with;627762;1,69021E+12;1,69021E+12;F;männlich;deutsch;written;5e6a3e3d265930022e81c70b;64be9a10d3e12291dd6b77ca;64ba4c8d312ce994ea1f9971;7;8440;22;Critical
23;29;;Abitur;without;627762;1,69021E+12;1,69021E+12;C;männlich;deutsch;written;5e6a3e3d265930022e81c70b;64be9a10d3e12291dd6b77ca;64ba4c8d312ce994ea1f9971;4;12204;23;Filler
23;29;;Abitur;without;627762;1,69021E+12;1,69021E+12;B;männlich;deutsch;written;5e6a3e3d265930022e81c70b;64be9a10d3e12291dd6b77ca;64ba4c8d312ce994ea1f9971;5;6284;24;Filler
23;29;;Abitur;without;627762;1,69021E+12;1,69021E+12;F;männlich;deutsch;written;5e6a3e3d265930022e81c70b;64be9a10d3e12291dd6b77ca;64ba4c8d312ce994ea1f9971;7;5790;25;Critical
23;29;;Abitur;without;627762;1,69021E+12;1,69021E+12;C;männlich;deutsch;written;5e6a3e3d265930022e81c70b;64be9a10d3e12291dd6b77ca;64ba4c8d312ce994ea1f9971;5;9643;26;Filler
23;29;;Abitur;without;627762;1,69021E+12;1,69021E+12;F;männlich;deutsch;written;5e6a3e3d265930022e81c70b;64be9a10d3e12291dd6b77ca;64ba4c8d312ce994ea1f9971;7;15134;27;Critical
23;29;;Abitur;without;627762;1,69021E+12;1,69021E+12;D;männlich;deutsch;written;5e6a3e3d265930022e81c70b;64be9a10d3e12291dd6b77ca;64ba4c8d312ce994ea1f9971;5;8490;28;Filler
23;29;;Abitur;without;627762;1,69021E+12;1,69021E+12;L;männlich;deutsch;written;5e6a3e3d265930022e81c70b;64be9a10d3e12291dd6b77ca;64ba4c8d312ce994ea1f9971;7;4313;29;Critical
23;29;;Abitur;without;627762;1,69021E+12;1,69021E+12;L;männlich;deutsch;written;5e6a3e3d265930022e81c70b;64be9a10d3e12291dd6b77ca;64ba4c8d312ce994ea1f9971;7;4694;30;Critical
23;29;;Abitur;without;627762;1,69021E+12;1,69021E+12;C;männlich;deutsch;written;5e6a3e3d265930022e81c70b;64be9a10d3e12291dd6b77ca;64ba4c8d312ce994ea1f9971;4;9873;31;Filler
23;29;;Abitur;without;627762;1,69021E+12;1,69021E+12;A;männlich;deutsch;written;5e6a3e3d265930022e81c70b;64be9a10d3e12291dd6b77ca;64ba4c8d312ce994ea1f9971;7;7555;32;Filler
23;29;;Abitur;with;627762;1,69021E+12;1,69021E+12;L;männlich;deutsch;written;5e6a3e3d265930022e81c70b;64be9a10d3e12291dd6b77ca;64ba4c8d312ce994ea1f9971;7;9153;33;Critical
23;29;;Abitur;without;627762;1,69021E+12;1,69021E+12;A;männlich;deutsch;written;5e6a3e3d265930022e81c70b;64be9a10d3e12291dd6b77ca;64ba4c8d312ce994ea1f9971;7;15541;34;Filler
23;29;;Abitur;without;627762;1,69021E+12;1,69021E+12;E;männlich;deutsch;written;5e6a3e3d265930022e81c70b;64be9a10d3e12291dd6b77ca;64ba4c8d312ce994ea1f9971;2;11647;35;Filler
23;29;;Abitur;without;627762;1,69021E+12;1,69021E+12;B;männlich;deutsch;written;5e6a3e3d265930022e81c70b;64be9a10d3e12291dd6b77ca;64ba4c8d312ce994ea1f9971;5;6424;36;Filler
23;29;;Abitur;without;627762;1,69021E+12;1,69021E+12;F;männlich;deutsch;written;5e6a3e3d265930022e81c70b;64be9a10d3e12291dd6b77ca;64ba4c8d312ce994ea1f9971;7;5004;37;Critical
23;29;;Abitur;without;627762;1,69021E+12;1,69021E+12;D;männlich;deutsch;written;5e6a3e3d265930022e81c70b;64be9a10d3e12291dd6b77ca;64ba4c8d312ce994ea1f9971;6;9195;38;Filler
23;29;;Abitur;without;627762;1,69021E+12;1,69021E+12;L;männlich;deutsch;written;5e6a3e3d265930022e81c70b;64be9a10d3e12291dd6b77ca;64ba4c8d312ce994ea1f9971;7;6852;39;Critical
23;29;;Abitur;with;627762;1,69021E+12;1,69021E+12;F;männlich;deutsch;written;5e6a3e3d265930022e81c70b;64be9a10d3e12291dd6b77ca;64ba4c8d312ce994ea1f9971;7;5487;40;Critical
23;29;;Abitur;with;627762;1,69021E+12;1,69021E+12;F;männlich;deutsch;written;5e6a3e3d265930022e81c70b;64be9a10d3e12291dd6b77ca;64ba4c8d312ce994ea1f9971;7;6386;41;Critical
23;29;;Abitur;with;627762;1,69021E+12;1,69021E+12;F;männlich;deutsch;written;5e6a3e3d265930022e81c70b;64be9a10d3e12291dd6b77ca;64ba4c8d312ce994ea1f9971;7;13763;42;Critical
23;29;;Abitur;without;627762;1,69021E+12;1,69021E+12;C;männlich;deutsch;written;5e6a3e3d265930022e81c70b;64be9a10d3e12291dd6b77ca;64ba4c8d312ce994ea1f9971;3;12231;43;Filler
23;29;;Abitur;with;627762;1,69021E+12;1,69021E+12;F;männlich;deutsch;written;5e6a3e3d265930022e81c70b;64be9a10d3e12291dd6b77ca;64ba4c8d312ce994ea1f9971;7;4924;44;Critical
23;29;;Abitur;without;627762;1,69021E+12;1,69021E+12;D;männlich;deutsch;written;5e6a3e3d265930022e81c70b;64be9a10d3e12291dd6b77ca;64ba4c8d312ce994ea1f9971;6;8548;45;Filler
23;29;;Abitur;without;627762;1,69021E+12;1,69021E+12;A;männlich;deutsch;written;5e6a3e3d265930022e81c70b;64be9a10d3e12291dd6b77ca;64ba4c8d312ce994ea1f9971;7;5837;46;Filler
23;29;;Abitur;without;627762;1,69021E+12;1,69021E+12;F;männlich;deutsch;written;5e6a3e3d265930022e81c70b;64be9a10d3e12291dd6b77ca;64ba4c8d312ce994ea1f9971;7;5359;47;Critical
23;29;;Abitur;with;627762;1,69021E+12;1,69021E+12;L;männlich;deutsch;written;5e6a3e3d265930022e81c70b;64be9a10d3e12291dd6b77ca;64ba4c8d312ce994ea1f9971;7;5934;48;Critical
23;29;;Abitur;without;627762;1,69021E+12;1,69021E+12;B;männlich;deutsch;written;5e6a3e3d265930022e81c70b;64be9a10d3e12291dd6b77ca;64ba4c8d312ce994ea1f9971;7;4663;49;Filler
23;29;;Abitur;with;627762;1,69021E+12;1,69021E+12;F;männlich;deutsch;written;5e6a3e3d265930022e81c70b;64be9a10d3e12291dd6b77ca;64ba4c8d312ce994ea1f9971;7;8453;50;Critical
23;29;;Abitur;without;627762;1,69021E+12;1,69021E+12;L;männlich;deutsch;written;5e6a3e3d265930022e81c70b;64be9a10d3e12291dd6b77ca;64ba4c8d312ce994ea1f9971;7;4889;51;Critical
23;29;;Abitur;with;627762;1,69021E+12;1,69021E+12;L;männlich;deutsch;written;5e6a3e3d265930022e81c70b;64be9a10d3e12291dd6b77ca;64ba4c8d312ce994ea1f9971;7;7059;52;Critical
23;29;;Abitur;without;627762;1,69021E+12;1,69021E+12;A;männlich;deutsch;written;5e6a3e3d265930022e81c70b;64be9a10d3e12291dd6b77ca;64ba4c8d312ce994ea1f9971;7;4855;53;Filler
23;29;;Abitur;without;627762;1,69021E+12;1,69021E+12;D;männlich;deutsch;written;5e6a3e3d265930022e81c70b;64be9a10d3e12291dd6b77ca;64ba4c8d312ce994ea1f9971;5;5353;54;Filler
23;29;;Abitur;without;627762;1,69021E+12;1,69021E+12;B;männlich;deutsch;written;5e6a3e3d265930022e81c70b;64be9a10d3e12291dd6b77ca;64ba4c8d312ce994ea1f9971;4;12415;55;Filler
23;29;;Abitur;with;627762;1,69021E+12;1,69021E+12;F;männlich;deutsch;written;5e6a3e3d265930022e81c70b;64be9a10d3e12291dd6b77ca;64ba4c8d312ce994ea1f9971;7;3294;56;Critical
24;26;;Bachelor;with;1731153;1,69021E+12;1,69021E+12;F;männlich;Deutsch;auditory;5cc47a4f68d02c00131d0d2b;64be967a74f38f7d0978c4b6;64ba4c8d312ce994ea1f9971;6;816845;1;Critical
24;26;;Bachelor;with;1731153;1,69021E+12;1,69021E+12;B;männlich;Deutsch;auditory;5cc47a4f68d02c00131d0d2b;64be967a74f38f7d0978c4b6;64ba4c8d312ce994ea1f9971;6;11977;2;Filler
24;26;;Bachelor;without;1731153;1,69021E+12;1,69021E+12;L;männlich;Deutsch;auditory;5cc47a4f68d02c00131d0d2b;64be967a74f38f7d0978c4b6;64ba4c8d312ce994ea1f9971;7;9279;3;Critical
24;26;;Bachelor;without;1731153;1,69021E+12;1,69021E+12;L;männlich;Deutsch;auditory;5cc47a4f68d02c00131d0d2b;64be967a74f38f7d0978c4b6;64ba4c8d312ce994ea1f9971;6;12342;4;Critical
24;26;;Bachelor;with;1731153;1,69021E+12;1,69021E+12;L;männlich;Deutsch;auditory;5cc47a4f68d02c00131d0d2b;64be967a74f38f7d0978c4b6;64ba4c8d312ce994ea1f9971;7;11917;5;Critical
24;26;;Bachelor;with;1731153;1,69021E+12;1,69021E+12;L;männlich;Deutsch;auditory;5cc47a4f68d02c00131d0d2b;64be967a74f38f7d0978c4b6;64ba4c8d312ce994ea1f9971;7;14869;6;Critical
24;26;;Bachelor;with;1731153;1,69021E+12;1,69021E+12;B;männlich;Deutsch;auditory;5cc47a4f68d02c00131d0d2b;64be967a74f38f7d0978c4b6;64ba4c8d312ce994ea1f9971;7;11128;7;Filler
24;26;;Bachelor;with;1731153;1,69021E+12;1,69021E+12;L;männlich;Deutsch;auditory;5cc47a4f68d02c00131d0d2b;64be967a74f38f7d0978c4b6;64ba4c8d312ce994ea1f9971;5;13679;8;Critical
24;26;;Bachelor;with;1731153;1,69021E+12;1,69021E+12;B;männlich;Deutsch;auditory;5cc47a4f68d02c00131d0d2b;64be967a74f38f7d0978c4b6;64ba4c8d312ce994ea1f9971;2;9337;9;Filler
24;26;;Bachelor;with;1731153;1,69021E+12;1,69021E+12;F;männlich;Deutsch;auditory;5cc47a4f68d02c00131d0d2b;64be967a74f38f7d0978c4b6;64ba4c8d312ce994ea1f9971;7;9039;10;Critical
24;26;;Bachelor;with;1731153;1,69021E+12;1,69021E+12;D;männlich;Deutsch;auditory;5cc47a4f68d02c00131d0d2b;64be967a74f38f7d0978c4b6;64ba4c8d312ce994ea1f9971;1;8954;11;Filler
24;26;;Bachelor;with;1731153;1,69021E+12;1,69021E+12;L;männlich;Deutsch;auditory;5cc47a4f68d02c00131d0d2b;64be967a74f38f7d0978c4b6;64ba4c8d312ce994ea1f9971;6;7940;12;Critical
24;26;;Bachelor;with;1731153;1,69021E+12;1,69021E+12;A;männlich;Deutsch;auditory;5cc47a4f68d02c00131d0d2b;64be967a74f38f7d0978c4b6;64ba4c8d312ce994ea1f9971;7;7657;13;Filler
24;26;;Bachelor;with;1731153;1,69021E+12;1,69021E+12;C;männlich;Deutsch;auditory;5cc47a4f68d02c00131d0d2b;64be967a74f38f7d0978c4b6;64ba4c8d312ce994ea1f9971;3;13265;14;Filler
24;26;;Bachelor;with;1731153;1,69021E+12;1,69021E+12;D;männlich;Deutsch;auditory;5cc47a4f68d02c00131d0d2b;64be967a74f38f7d0978c4b6;64ba4c8d312ce994ea1f9971;2;9061;15;Filler
24;26;;Bachelor;with;1731153;1,69021E+12;1,69021E+12;L;männlich;Deutsch;auditory;5cc47a4f68d02c00131d0d2b;64be967a74f38f7d0978c4b6;64ba4c8d312ce994ea1f9971;6;8971;16;Critical
24;26;;Bachelor;with;1731153;1,69021E+12;1,69021E+12;A;männlich;Deutsch;auditory;5cc47a4f68d02c00131d0d2b;64be967a74f38f7d0978c4b6;64ba4c8d312ce994ea1f9971;4;8148;17;Filler
24;26;;Bachelor;without;1731153;1,69021E+12;1,69021E+12;F;männlich;Deutsch;auditory;5cc47a4f68d02c00131d0d2b;64be967a74f38f7d0978c4b6;64ba4c8d312ce994ea1f9971;7;8549;18;Critical
24;26;;Bachelor;with;1731153;1,69021E+12;1,69021E+12;E;männlich;Deutsch;auditory;5cc47a4f68d02c00131d0d2b;64be967a74f38f7d0978c4b6;64ba4c8d312ce994ea1f9971;2;8929;19;Filler
24;26;;Bachelor;with;1731153;1,69021E+12;1,69021E+12;C;männlich;Deutsch;auditory;5cc47a4f68d02c00131d0d2b;64be967a74f38f7d0978c4b6;64ba4c8d312ce994ea1f9971;3;9302;20;Filler
24;26;;Bachelor;with;1731153;1,69021E+12;1,69021E+12;F;männlich;Deutsch;auditory;5cc47a4f68d02c00131d0d2b;64be967a74f38f7d0978c4b6;64ba4c8d312ce994ea1f9971;7;7927;21;Critical
24;26;;Bachelor;without;1731153;1,69021E+12;1,69021E+12;F;männlich;Deutsch;auditory;5cc47a4f68d02c00131d0d2b;64be967a74f38f7d0978c4b6;64ba4c8d312ce994ea1f9971;7;8200;22;Critical
24;26;;Bachelor;without;1731153;1,69021E+12;1,69021E+12;F;männlich;Deutsch;auditory;5cc47a4f68d02c00131d0d2b;64be967a74f38f7d0978c4b6;64ba4c8d312ce994ea1f9971;7;7546;23;Critical
24;26;;Bachelor;without;1731153;1,69021E+12;1,69021E+12;L;männlich;Deutsch;auditory;5cc47a4f68d02c00131d0d2b;64be967a74f38f7d0978c4b6;64ba4c8d312ce994ea1f9971;7;7757;24;Critical
24;26;;Bachelor;with;1731153;1,69021E+12;1,69021E+12;E;männlich;Deutsch;auditory;5cc47a4f68d02c00131d0d2b;64be967a74f38f7d0978c4b6;64ba4c8d312ce994ea1f9971;1;11131;25;Filler
24;26;;Bachelor;without;1731153;1,69021E+12;1,69021E+12;F;männlich;Deutsch;auditory;5cc47a4f68d02c00131d0d2b;64be967a74f38f7d0978c4b6;64ba4c8d312ce994ea1f9971;7;7686;26;Critical
24;26;;Bachelor;with;1731153;1,69021E+12;1,69021E+12;D;männlich;Deutsch;auditory;5cc47a4f68d02c00131d0d2b;64be967a74f38f7d0978c4b6;64ba4c8d312ce994ea1f9971;1;9010;27;Filler
24;26;;Bachelor;with;1731153;1,69021E+12;1,69021E+12;D;männlich;Deutsch;auditory;5cc47a4f68d02c00131d0d2b;64be967a74f38f7d0978c4b6;64ba4c8d312ce994ea1f9971;1;10314;28;Filler
24;26;;Bachelor;with;1731153;1,69021E+12;1,69021E+12;E;männlich;Deutsch;auditory;5cc47a4f68d02c00131d0d2b;64be967a74f38f7d0978c4b6;64ba4c8d312ce994ea1f9971;4;7592;29;Filler
24;26;;Bachelor;without;1731153;1,69021E+12;1,69021E+12;F;männlich;Deutsch;auditory;5cc47a4f68d02c00131d0d2b;64be967a74f38f7d0978c4b6;64ba4c8d312ce994ea1f9971;7;7517;30;Critical
24;26;;Bachelor;without;1731153;1,69021E+12;1,69021E+12;F;männlich;Deutsch;auditory;5cc47a4f68d02c00131d0d2b;64be967a74f38f7d0978c4b6;64ba4c8d312ce994ea1f9971;7;8349;31;Critical
24;26;;Bachelor;with;1731153;1,69021E+12;1,69021E+12;L;männlich;Deutsch;auditory;5cc47a4f68d02c00131d0d2b;64be967a74f38f7d0978c4b6;64ba4c8d312ce994ea1f9971;7;7731;32;Critical
24;26;;Bachelor;with;1731153;1,69021E+12;1,69021E+12;L;männlich;Deutsch;auditory;5cc47a4f68d02c00131d0d2b;64be967a74f38f7d0978c4b6;64ba4c8d312ce994ea1f9971;7;7769;33;Critical
24;26;;Bachelor;with;1731153;1,69021E+12;1,69021E+12;A;männlich;Deutsch;auditory;5cc47a4f68d02c00131d0d2b;64be967a74f38f7d0978c4b6;64ba4c8d312ce994ea1f9971;7;9835;34;Filler
24;26;;Bachelor;without;1731153;1,69021E+12;1,69021E+12;F;männlich;Deutsch;auditory;5cc47a4f68d02c00131d0d2b;64be967a74f38f7d0978c4b6;64ba4c8d312ce994ea1f9971;7;8563;35;Critical
24;26;;Bachelor;without;1731153;1,69021E+12;1,69021E+12;L;männlich;Deutsch;auditory;5cc47a4f68d02c00131d0d2b;64be967a74f38f7d0978c4b6;64ba4c8d312ce994ea1f9971;7;6634;36;Critical
24;26;;Bachelor;with;1731153;1,69021E+12;1,69021E+12;B;männlich;Deutsch;auditory;5cc47a4f68d02c00131d0d2b;64be967a74f38f7d0978c4b6;64ba4c8d312ce994ea1f9971;3;10974;37;Filler
24;26;;Bachelor;with;1731153;1,69021E+12;1,69021E+12;C;männlich;Deutsch;auditory;5cc47a4f68d02c00131d0d2b;64be967a74f38f7d0978c4b6;64ba4c8d312ce994ea1f9971;3;12495;38;Filler
24;26;;Bachelor;with;1731153;1,69021E+12;1,69021E+12;D;männlich;Deutsch;auditory;5cc47a4f68d02c00131d0d2b;64be967a74f38f7d0978c4b6;64ba4c8d312ce994ea1f9971;5;11564;39;Filler
24;26;;Bachelor;with;1731153;1,69021E+12;1,69021E+12;A;männlich;Deutsch;auditory;5cc47a4f68d02c00131d0d2b;64be967a74f38f7d0978c4b6;64ba4c8d312ce994ea1f9971;6;9375;40;Filler
24;26;;Bachelor;with;1731153;1,69021E+12;1,69021E+12;E;männlich;Deutsch;auditory;5cc47a4f68d02c00131d0d2b;64be967a74f38f7d0978c4b6;64ba4c8d312ce994ea1f9971;2;9917;41;Filler
24;26;;Bachelor;with;1731153;1,69021E+12;1,69021E+12;C;männlich;Deutsch;auditory;5cc47a4f68d02c00131d0d2b;64be967a74f38f7d0978c4b6;64ba4c8d312ce994ea1f9971;7;11220;42;Filler
24;26;;Bachelor;with;1731153;1,69021E+12;1,69021E+12;F;männlich;Deutsch;auditory;5cc47a4f68d02c00131d0d2b;64be967a74f38f7d0978c4b6;64ba4c8d312ce994ea1f9971;7;7413;43;Critical
24;26;;Bachelor;with;1731153;1,69021E+12;1,69021E+12;A;männlich;Deutsch;auditory;5cc47a4f68d02c00131d0d2b;64be967a74f38f7d0978c4b6;64ba4c8d312ce994ea1f9971;7;6551;44;Filler
24;26;;Bachelor;without;1731153;1,69021E+12;1,69021E+12;L;männlich;Deutsch;auditory;5cc47a4f68d02c00131d0d2b;64be967a74f38f7d0978c4b6;64ba4c8d312ce994ea1f9971;7;6376;45;Critical
24;26;;Bachelor;with;1731153;1,69021E+12;1,69021E+12;D;männlich;Deutsch;auditory;5cc47a4f68d02c00131d0d2b;64be967a74f38f7d0978c4b6;64ba4c8d312ce994ea1f9971;7;12190;46;Filler
24;26;;Bachelor;with;1731153;1,69021E+12;1,69021E+12;B;männlich;Deutsch;auditory;5cc47a4f68d02c00131d0d2b;64be967a74f38f7d0978c4b6;64ba4c8d312ce994ea1f9971;6;10868;47;Filler
24;26;;Bachelor;with;1731153;1,69021E+12;1,69021E+12;F;männlich;Deutsch;auditory;5cc47a4f68d02c00131d0d2b;64be967a74f38f7d0978c4b6;64ba4c8d312ce994ea1f9971;7;8565;48;Critical
24;26;;Bachelor;without;1731153;1,69021E+12;1,69021E+12;L;männlich;Deutsch;auditory;5cc47a4f68d02c00131d0d2b;64be967a74f38f7d0978c4b6;64ba4c8d312ce994ea1f9971;7;8798;49;Critical
24;26;;Bachelor;with;1731153;1,69021E+12;1,69021E+12;C;männlich;Deutsch;auditory;5cc47a4f68d02c00131d0d2b;64be967a74f38f7d0978c4b6;64ba4c8d312ce994ea1f9971;7;9482;50;Filler
24;26;;Bachelor;with;1731153;1,69021E+12;1,69021E+12;E;männlich;Deutsch;auditory;5cc47a4f68d02c00131d0d2b;64be967a74f38f7d0978c4b6;64ba4c8d312ce994ea1f9971;1;9549;51;Filler
24;26;;Bachelor;with;1731153;1,69021E+12;1,69021E+12;B;männlich;Deutsch;auditory;5cc47a4f68d02c00131d0d2b;64be967a74f38f7d0978c4b6;64ba4c8d312ce994ea1f9971;3;8922;52;Filler
24;26;;Bachelor;with;1731153;1,69021E+12;1,69021E+12;C;männlich;Deutsch;auditory;5cc47a4f68d02c00131d0d2b;64be967a74f38f7d0978c4b6;64ba4c8d312ce994ea1f9971;4;14034;53;Filler
24;26;;Bachelor;without;1731153;1,69021E+12;1,69021E+12;L;männlich;Deutsch;auditory;5cc47a4f68d02c00131d0d2b;64be967a74f38f7d0978c4b6;64ba4c8d312ce994ea1f9971;7;6383;54;Critical
24;26;;Bachelor;with;1731153;1,69021E+12;1,69021E+12;F;männlich;Deutsch;auditory;5cc47a4f68d02c00131d0d2b;64be967a74f38f7d0978c4b6;64ba4c8d312ce994ea1f9971;7;11486;55;Critical
24;26;;Bachelor;with;1731153;1,69021E+12;1,69021E+12;F;männlich;Deutsch;auditory;5cc47a4f68d02c00131d0d2b;64be967a74f38f7d0978c4b6;64ba4c8d312ce994ea1f9971;7;8992;56;Critical
25;29;;Höherer Abschluss;without;561597;1,69038E+12;1,69038E+12;L;weiblich;Deutsch;auditory;5fcf9f17f5a7c20ba38e9cc9;64c12be061515deaa048cd80;64ba4c8d312ce994ea1f9971;6;13122;1;Critical
25;29;;Höherer Abschluss;with;561597;1,69038E+12;1,69038E+12;A;weiblich;Deutsch;auditory;5fcf9f17f5a7c20ba38e9cc9;64c12be061515deaa048cd80;64ba4c8d312ce994ea1f9971;5;10530;2;Filler
25;29;;Höherer Abschluss;without;561597;1,69038E+12;1,69038E+12;F;weiblich;Deutsch;auditory;5fcf9f17f5a7c20ba38e9cc9;64c12be061515deaa048cd80;64ba4c8d312ce994ea1f9971;7;13168;3;Critical
25;29;;Höherer Abschluss;with;561597;1,69038E+12;1,69038E+12;D;weiblich;Deutsch;auditory;5fcf9f17f5a7c20ba38e9cc9;64c12be061515deaa048cd80;64ba4c8d312ce994ea1f9971;1;9347;4;Filler
25;29;;Höherer Abschluss;with;561597;1,69038E+12;1,69038E+12;L;weiblich;Deutsch;auditory;5fcf9f17f5a7c20ba38e9cc9;64c12be061515deaa048cd80;64ba4c8d312ce994ea1f9971;6;8696;5;Critical
25;29;;Höherer Abschluss;with;561597;1,69038E+12;1,69038E+12;L;weiblich;Deutsch;auditory;5fcf9f17f5a7c20ba38e9cc9;64c12be061515deaa048cd80;64ba4c8d312ce994ea1f9971;6;8427;6;Critical
25;29;;Höherer Abschluss;with;561597;1,69038E+12;1,69038E+12;L;weiblich;Deutsch;auditory;5fcf9f17f5a7c20ba38e9cc9;64c12be061515deaa048cd80;64ba4c8d312ce994ea1f9971;6;8754;7;Critical
25;29;;Höherer Abschluss;without;561597;1,69038E+12;1,69038E+12;F;weiblich;Deutsch;auditory;5fcf9f17f5a7c20ba38e9cc9;64c12be061515deaa048cd80;64ba4c8d312ce994ea1f9971;7;8366;8;Critical
25;29;;Höherer Abschluss;without;561597;1,69038E+12;1,69038E+12;L;weiblich;Deutsch;auditory;5fcf9f17f5a7c20ba38e9cc9;64c12be061515deaa048cd80;64ba4c8d312ce994ea1f9971;6;9036;9;Critical
25;29;;Höherer Abschluss;with;561597;1,69038E+12;1,69038E+12;L;weiblich;Deutsch;auditory;5fcf9f17f5a7c20ba38e9cc9;64c12be061515deaa048cd80;64ba4c8d312ce994ea1f9971;7;7889;10;Critical
25;29;;Höherer Abschluss;with;561597;1,69038E+12;1,69038E+12;F;weiblich;Deutsch;auditory;5fcf9f17f5a7c20ba38e9cc9;64c12be061515deaa048cd80;64ba4c8d312ce994ea1f9971;6;8587;11;Critical
25;29;;Höherer Abschluss;with;561597;1,69038E+12;1,69038E+12;B;weiblich;Deutsch;auditory;5fcf9f17f5a7c20ba38e9cc9;64c12be061515deaa048cd80;64ba4c8d312ce994ea1f9971;5;10510;12;Filler
25;29;;Höherer Abschluss;with;561597;1,69038E+12;1,69038E+12;C;weiblich;Deutsch;auditory;5fcf9f17f5a7c20ba38e9cc9;64c12be061515deaa048cd80;64ba4c8d312ce994ea1f9971;6;10355;13;Filler
25;29;;Höherer Abschluss;with;561597;1,69038E+12;1,69038E+12;E;weiblich;Deutsch;auditory;5fcf9f17f5a7c20ba38e9cc9;64c12be061515deaa048cd80;64ba4c8d312ce994ea1f9971;2;9684;14;Filler
25;29;;Höherer Abschluss;with;561597;1,69038E+12;1,69038E+12;F;weiblich;Deutsch;auditory;5fcf9f17f5a7c20ba38e9cc9;64c12be061515deaa048cd80;64ba4c8d312ce994ea1f9971;7;8488;15;Critical
25;29;;Höherer Abschluss;with;561597;1,69038E+12;1,69038E+12;L;weiblich;Deutsch;auditory;5fcf9f17f5a7c20ba38e9cc9;64c12be061515deaa048cd80;64ba4c8d312ce994ea1f9971;7;7573;16;Critical
25;29;;Höherer Abschluss;with;561597;1,69038E+12;1,69038E+12;F;weiblich;Deutsch;auditory;5fcf9f17f5a7c20ba38e9cc9;64c12be061515deaa048cd80;64ba4c8d312ce994ea1f9971;7;8736;17;Critical
25;29;;Höherer Abschluss;without;561597;1,69038E+12;1,69038E+12;L;weiblich;Deutsch;auditory;5fcf9f17f5a7c20ba38e9cc9;64c12be061515deaa048cd80;64ba4c8d312ce994ea1f9971;7;9024;18;Critical
25;29;;Höherer Abschluss;with;561597;1,69038E+12;1,69038E+12;C;weiblich;Deutsch;auditory;5fcf9f17f5a7c20ba38e9cc9;64c12be061515deaa048cd80;64ba4c8d312ce994ea1f9971;3;12125;19;Filler
25;29;;Höherer Abschluss;with;561597;1,69038E+12;1,69038E+12;A;weiblich;Deutsch;auditory;5fcf9f17f5a7c20ba38e9cc9;64c12be061515deaa048cd80;64ba4c8d312ce994ea1f9971;7;9014;20;Filler
25;29;;Höherer Abschluss;without;561597;1,69038E+12;1,69038E+12;L;weiblich;Deutsch;auditory;5fcf9f17f5a7c20ba38e9cc9;64c12be061515deaa048cd80;64ba4c8d312ce994ea1f9971;7;13243;21;Critical
25;29;;Höherer Abschluss;without;561597;1,69038E+12;1,69038E+12;F;weiblich;Deutsch;auditory;5fcf9f17f5a7c20ba38e9cc9;64c12be061515deaa048cd80;64ba4c8d312ce994ea1f9971;7;8587;22;Critical
25;29;;Höherer Abschluss;with;561597;1,69038E+12;1,69038E+12;B;weiblich;Deutsch;auditory;5fcf9f17f5a7c20ba38e9cc9;64c12be061515deaa048cd80;64ba4c8d312ce994ea1f9971;7;10324;23;Filler
25;29;;Höherer Abschluss;with;561597;1,69038E+12;1,69038E+12;E;weiblich;Deutsch;auditory;5fcf9f17f5a7c20ba38e9cc9;64c12be061515deaa048cd80;64ba4c8d312ce994ea1f9971;3;8131;24;Filler
25;29;;Höherer Abschluss;with;561597;1,69038E+12;1,69038E+12;L;weiblich;Deutsch;auditory;5fcf9f17f5a7c20ba38e9cc9;64c12be061515deaa048cd80;64ba4c8d312ce994ea1f9971;7;8613;25;Critical
25;29;;Höherer Abschluss;with;561597;1,69038E+12;1,69038E+12;D;weiblich;Deutsch;auditory;5fcf9f17f5a7c20ba38e9cc9;64c12be061515deaa048cd80;64ba4c8d312ce994ea1f9971;1;10734;26;Filler
25;29;;Höherer Abschluss;with;561597;1,69038E+12;1,69038E+12;L;weiblich;Deutsch;auditory;5fcf9f17f5a7c20ba38e9cc9;64c12be061515deaa048cd80;64ba4c8d312ce994ea1f9971;7;8492;27;Critical
25;29;;Höherer Abschluss;with;561597;1,69038E+12;1,69038E+12;D;weiblich;Deutsch;auditory;5fcf9f17f5a7c20ba38e9cc9;64c12be061515deaa048cd80;64ba4c8d312ce994ea1f9971;1;8554;28;Filler
25;29;;Höherer Abschluss;with;561597;1,69038E+12;1,69038E+12;C;weiblich;Deutsch;auditory;5fcf9f17f5a7c20ba38e9cc9;64c12be061515deaa048cd80;64ba4c8d312ce994ea1f9971;1;11644;29;Filler
25;29;;Höherer Abschluss;with;561597;1,69038E+12;1,69038E+12;D;weiblich;Deutsch;auditory;5fcf9f17f5a7c20ba38e9cc9;64c12be061515deaa048cd80;64ba4c8d312ce994ea1f9971;3;9953;30;Filler
25;29;;Höherer Abschluss;with;561597;1,69038E+12;1,69038E+12;F;weiblich;Deutsch;auditory;5fcf9f17f5a7c20ba38e9cc9;64c12be061515deaa048cd80;64ba4c8d312ce994ea1f9971;7;9441;31;Critical
25;29;;Höherer Abschluss;with;561597;1,69038E+12;1,69038E+12;B;weiblich;Deutsch;auditory;5fcf9f17f5a7c20ba38e9cc9;64c12be061515deaa048cd80;64ba4c8d312ce994ea1f9971;3;8984;32;Filler
25;29;;Höherer Abschluss;with;561597;1,69038E+12;1,69038E+12;D;weiblich;Deutsch;auditory;5fcf9f17f5a7c20ba38e9cc9;64c12be061515deaa048cd80;64ba4c8d312ce994ea1f9971;3;8708;33;Filler
25;29;;Höherer Abschluss;with;561597;1,69038E+12;1,69038E+12;A;weiblich;Deutsch;auditory;5fcf9f17f5a7c20ba38e9cc9;64c12be061515deaa048cd80;64ba4c8d312ce994ea1f9971;7;7123;34;Filler
25;29;;Höherer Abschluss;with;561597;1,69038E+12;1,69038E+12;C;weiblich;Deutsch;auditory;5fcf9f17f5a7c20ba38e9cc9;64c12be061515deaa048cd80;64ba4c8d312ce994ea1f9971;4;10866;35;Filler
25;29;;Höherer Abschluss;without;561597;1,69038E+12;1,69038E+12;F;weiblich;Deutsch;auditory;5fcf9f17f5a7c20ba38e9cc9;64c12be061515deaa048cd80;64ba4c8d312ce994ea1f9971;7;6875;36;Critical
25;29;;Höherer Abschluss;with;561597;1,69038E+12;1,69038E+12;B;weiblich;Deutsch;auditory;5fcf9f17f5a7c20ba38e9cc9;64c12be061515deaa048cd80;64ba4c8d312ce994ea1f9971;4;9699;37;Filler
25;29;;Höherer Abschluss;without;561597;1,69038E+12;1,69038E+12;F;weiblich;Deutsch;auditory;5fcf9f17f5a7c20ba38e9cc9;64c12be061515deaa048cd80;64ba4c8d312ce994ea1f9971;7;8352;38;Critical
25;29;;Höherer Abschluss;with;561597;1,69038E+12;1,69038E+12;F;weiblich;Deutsch;auditory;5fcf9f17f5a7c20ba38e9cc9;64c12be061515deaa048cd80;64ba4c8d312ce994ea1f9971;7;8527;39;Critical
25;29;;Höherer Abschluss;with;561597;1,69038E+12;1,69038E+12;D;weiblich;Deutsch;auditory;5fcf9f17f5a7c20ba38e9cc9;64c12be061515deaa048cd80;64ba4c8d312ce994ea1f9971;5;9640;40;Filler
25;29;;Höherer Abschluss;with;561597;1,69038E+12;1,69038E+12;E;weiblich;Deutsch;auditory;5fcf9f17f5a7c20ba38e9cc9;64c12be061515deaa048cd80;64ba4c8d312ce994ea1f9971;2;10600;41;Filler
25;29;;Höherer Abschluss;with;561597;1,69038E+12;1,69038E+12;B;weiblich;Deutsch;auditory;5fcf9f17f5a7c20ba38e9cc9;64c12be061515deaa048cd80;64ba4c8d312ce994ea1f9971;6;11296;42;Filler
25;29;;Höherer Abschluss;with;561597;1,69038E+12;1,69038E+12;A;weiblich;Deutsch;auditory;5fcf9f17f5a7c20ba38e9cc9;64c12be061515deaa048cd80;64ba4c8d312ce994ea1f9971;7;7602;43;Filler
25;29;;Höherer Abschluss;with;561597;1,69038E+12;1,69038E+12;C;weiblich;Deutsch;auditory;5fcf9f17f5a7c20ba38e9cc9;64c12be061515deaa048cd80;64ba4c8d312ce994ea1f9971;1;11706;44;Filler
25;29;;Höherer Abschluss;with;561597;1,69038E+12;1,69038E+12;B;weiblich;Deutsch;auditory;5fcf9f17f5a7c20ba38e9cc9;64c12be061515deaa048cd80;64ba4c8d312ce994ea1f9971;5;8915;45;Filler
25;29;;Höherer Abschluss;with;561597;1,69038E+12;1,69038E+12;F;weiblich;Deutsch;auditory;5fcf9f17f5a7c20ba38e9cc9;64c12be061515deaa048cd80;64ba4c8d312ce994ea1f9971;7;8911;46;Critical
25;29;;Höherer Abschluss;without;561597;1,69038E+12;1,69038E+12;F;weiblich;Deutsch;auditory;5fcf9f17f5a7c20ba38e9cc9;64c12be061515deaa048cd80;64ba4c8d312ce994ea1f9971;7;7597;47;Critical
25;29;;Höherer Abschluss;with;561597;1,69038E+12;1,69038E+12;C;weiblich;Deutsch;auditory;5fcf9f17f5a7c20ba38e9cc9;64c12be061515deaa048cd80;64ba4c8d312ce994ea1f9971;5;9182;48;Filler
25;29;;Höherer Abschluss;with;561597;1,69038E+12;1,69038E+12;E;weiblich;Deutsch;auditory;5fcf9f17f5a7c20ba38e9cc9;64c12be061515deaa048cd80;64ba4c8d312ce994ea1f9971;5;6985;49;Filler
25;29;;Höherer Abschluss;without;561597;1,69038E+12;1,69038E+12;F;weiblich;Deutsch;auditory;5fcf9f17f5a7c20ba38e9cc9;64c12be061515deaa048cd80;64ba4c8d312ce994ea1f9971;7;7345;50;Critical
25;29;;Höherer Abschluss;without;561597;1,69038E+12;1,69038E+12;L;weiblich;Deutsch;auditory;5fcf9f17f5a7c20ba38e9cc9;64c12be061515deaa048cd80;64ba4c8d312ce994ea1f9971;7;7262;51;Critical
25;29;;Höherer Abschluss;with;561597;1,69038E+12;1,69038E+12;A;weiblich;Deutsch;auditory;5fcf9f17f5a7c20ba38e9cc9;64c12be061515deaa048cd80;64ba4c8d312ce994ea1f9971;7;8074;52;Filler
25;29;;Höherer Abschluss;without;561597;1,69038E+12;1,69038E+12;L;weiblich;Deutsch;auditory;5fcf9f17f5a7c20ba38e9cc9;64c12be061515deaa048cd80;64ba4c8d312ce994ea1f9971;7;6816;53;Critical
25;29;;Höherer Abschluss;without;561597;1,69038E+12;1,69038E+12;L;weiblich;Deutsch;auditory;5fcf9f17f5a7c20ba38e9cc9;64c12be061515deaa048cd80;64ba4c8d312ce994ea1f9971;7;7033;54;Critical
25;29;;Höherer Abschluss;with;561597;1,69038E+12;1,69038E+12;F;weiblich;Deutsch;auditory;5fcf9f17f5a7c20ba38e9cc9;64c12be061515deaa048cd80;64ba4c8d312ce994ea1f9971;7;8393;55;Critical
25;29;;Höherer Abschluss;with;561597;1,69038E+12;1,69038E+12;E;weiblich;Deutsch;auditory;5fcf9f17f5a7c20ba38e9cc9;64c12be061515deaa048cd80;64ba4c8d312ce994ea1f9971;2;9058;56;Filler
26;26;;Bachelor;with;506481;1,69038E+12;1,69038E+12;F;männlich;Deutsch;auditory;5a1d44eeab721b0001ef9566;64c12c31e6b2738d807f8b07;64ba4c8d312ce994ea1f9971;7;16896;1;Critical
26;26;;Bachelor;without;506481;1,69038E+12;1,69038E+12;F;männlich;Deutsch;auditory;5a1d44eeab721b0001ef9566;64c12c31e6b2738d807f8b07;64ba4c8d312ce994ea1f9971;7;8598;2;Critical
26;26;;Bachelor;with;506481;1,69038E+12;1,69038E+12;L;männlich;Deutsch;auditory;5a1d44eeab721b0001ef9566;64c12c31e6b2738d807f8b07;64ba4c8d312ce994ea1f9971;7;7583;3;Critical
26;26;;Bachelor;with;506481;1,69038E+12;1,69038E+12;F;männlich;Deutsch;auditory;5a1d44eeab721b0001ef9566;64c12c31e6b2738d807f8b07;64ba4c8d312ce994ea1f9971;7;7917;4;Critical
26;26;;Bachelor;with;506481;1,69038E+12;1,69038E+12;C;männlich;Deutsch;auditory;5a1d44eeab721b0001ef9566;64c12c31e6b2738d807f8b07;64ba4c8d312ce994ea1f9971;5;9474;5;Filler
26;26;;Bachelor;with;506481;1,69038E+12;1,69038E+12;A;männlich;Deutsch;auditory;5a1d44eeab721b0001ef9566;64c12c31e6b2738d807f8b07;64ba4c8d312ce994ea1f9971;6;7235;6;Filler
26;26;;Bachelor;with;506481;1,69038E+12;1,69038E+12;F;männlich;Deutsch;auditory;5a1d44eeab721b0001ef9566;64c12c31e6b2738d807f8b07;64ba4c8d312ce994ea1f9971;7;8132;7;Critical
26;26;;Bachelor;without;506481;1,69038E+12;1,69038E+12;L;männlich;Deutsch;auditory;5a1d44eeab721b0001ef9566;64c12c31e6b2738d807f8b07;64ba4c8d312ce994ea1f9971;7;6096;8;Critical
26;26;;Bachelor;with;506481;1,69038E+12;1,69038E+12;D;männlich;Deutsch;auditory;5a1d44eeab721b0001ef9566;64c12c31e6b2738d807f8b07;64ba4c8d312ce994ea1f9971;3;10443;9;Filler
26;26;;Bachelor;with;506481;1,69038E+12;1,69038E+12;D;männlich;Deutsch;auditory;5a1d44eeab721b0001ef9566;64c12c31e6b2738d807f8b07;64ba4c8d312ce994ea1f9971;2;9884;10;Filler
26;26;;Bachelor;with;506481;1,69038E+12;1,69038E+12;L;männlich;Deutsch;auditory;5a1d44eeab721b0001ef9566;64c12c31e6b2738d807f8b07;64ba4c8d312ce994ea1f9971;7;6503;11;Critical
26;26;;Bachelor;with;506481;1,69038E+12;1,69038E+12;A;männlich;Deutsch;auditory;5a1d44eeab721b0001ef9566;64c12c31e6b2738d807f8b07;64ba4c8d312ce994ea1f9971;7;6374;12;Filler
26;26;;Bachelor;without;506481;1,69038E+12;1,69038E+12;F;männlich;Deutsch;auditory;5a1d44eeab721b0001ef9566;64c12c31e6b2738d807f8b07;64ba4c8d312ce994ea1f9971;7;6822;13;Critical
26;26;;Bachelor;with;506481;1,69038E+12;1,69038E+12;E;männlich;Deutsch;auditory;5a1d44eeab721b0001ef9566;64c12c31e6b2738d807f8b07;64ba4c8d312ce994ea1f9971;1;7450;14;Filler
26;26;;Bachelor;with;506481;1,69038E+12;1,69038E+12;D;männlich;Deutsch;auditory;5a1d44eeab721b0001ef9566;64c12c31e6b2738d807f8b07;64ba4c8d312ce994ea1f9971;5;9544;15;Filler
26;26;;Bachelor;with;506481;1,69038E+12;1,69038E+12;A;männlich;Deutsch;auditory;5a1d44eeab721b0001ef9566;64c12c31e6b2738d807f8b07;64ba4c8d312ce994ea1f9971;7;6882;16;Filler
26;26;;Bachelor;without;506481;1,69038E+12;1,69038E+12;L;männlich;Deutsch;auditory;5a1d44eeab721b0001ef9566;64c12c31e6b2738d807f8b07;64ba4c8d312ce994ea1f9971;7;6387;17;Critical
26;26;;Bachelor;with;506481;1,69038E+12;1,69038E+12;B;männlich;Deutsch;auditory;5a1d44eeab721b0001ef9566;64c12c31e6b2738d807f8b07;64ba4c8d312ce994ea1f9971;5;8982;18;Filler
26;26;;Bachelor;with;506481;1,69038E+12;1,69038E+12;F;männlich;Deutsch;auditory;5a1d44eeab721b0001ef9566;64c12c31e6b2738d807f8b07;64ba4c8d312ce994ea1f9971;7;7311;19;Critical
26;26;;Bachelor;with;506481;1,69038E+12;1,69038E+12;C;männlich;Deutsch;auditory;5a1d44eeab721b0001ef9566;64c12c31e6b2738d807f8b07;64ba4c8d312ce994ea1f9971;2;11540;20;Filler
26;26;;Bachelor;with;506481;1,69038E+12;1,69038E+12;L;männlich;Deutsch;auditory;5a1d44eeab721b0001ef9566;64c12c31e6b2738d807f8b07;64ba4c8d312ce994ea1f9971;7;6643;21;Critical
26;26;;Bachelor;with;506481;1,69038E+12;1,69038E+12;B;männlich;Deutsch;auditory;5a1d44eeab721b0001ef9566;64c12c31e6b2738d807f8b07;64ba4c8d312ce994ea1f9971;5;7878;22;Filler
26;26;;Bachelor;without;506481;1,69038E+12;1,69038E+12;L;männlich;Deutsch;auditory;5a1d44eeab721b0001ef9566;64c12c31e6b2738d807f8b07;64ba4c8d312ce994ea1f9971;7;6626;23;Critical
26;26;;Bachelor;with;506481;1,69038E+12;1,69038E+12;B;männlich;Deutsch;auditory;5a1d44eeab721b0001ef9566;64c12c31e6b2738d807f8b07;64ba4c8d312ce994ea1f9971;6;8878;24;Filler
26;26;;Bachelor;with;506481;1,69038E+12;1,69038E+12;A;männlich;Deutsch;auditory;5a1d44eeab721b0001ef9566;64c12c31e6b2738d807f8b07;64ba4c8d312ce994ea1f9971;7;6454;25;Filler
26;26;;Bachelor;with;506481;1,69038E+12;1,69038E+12;E;männlich;Deutsch;auditory;5a1d44eeab721b0001ef9566;64c12c31e6b2738d807f8b07;64ba4c8d312ce994ea1f9971;1;9511;26;Filler
26;26;;Bachelor;with;506481;1,69038E+12;1,69038E+12;F;männlich;Deutsch;auditory;5a1d44eeab721b0001ef9566;64c12c31e6b2738d807f8b07;64ba4c8d312ce994ea1f9971;7;6907;27;Critical
26;26;;Bachelor;with;506481;1,69038E+12;1,69038E+12;E;männlich;Deutsch;auditory;5a1d44eeab721b0001ef9566;64c12c31e6b2738d807f8b07;64ba4c8d312ce994ea1f9971;1;9303;28;Filler
26;26;;Bachelor;without;506481;1,69038E+12;1,69038E+12;L;männlich;Deutsch;auditory;5a1d44eeab721b0001ef9566;64c12c31e6b2738d807f8b07;64ba4c8d312ce994ea1f9971;7;7015;29;Critical
26;26;;Bachelor;with;506481;1,69038E+12;1,69038E+12;C;männlich;Deutsch;auditory;5a1d44eeab721b0001ef9566;64c12c31e6b2738d807f8b07;64ba4c8d312ce994ea1f9971;1;10529;30;Filler
26;26;;Bachelor;with;506481;1,69038E+12;1,69038E+12;D;männlich;Deutsch;auditory;5a1d44eeab721b0001ef9566;64c12c31e6b2738d807f8b07;64ba4c8d312ce994ea1f9971;1;9105;31;Filler
26;26;;Bachelor;without;506481;1,69038E+12;1,69038E+12;L;männlich;Deutsch;auditory;5a1d44eeab721b0001ef9566;64c12c31e6b2738d807f8b07;64ba4c8d312ce994ea1f9971;7;5796;32;Critical
26;26;;Bachelor;with;506481;1,69038E+12;1,69038E+12;L;männlich;Deutsch;auditory;5a1d44eeab721b0001ef9566;64c12c31e6b2738d807f8b07;64ba4c8d312ce994ea1f9971;7;7926;33;Critical
26;26;;Bachelor;with;506481;1,69038E+12;1,69038E+12;D;männlich;Deutsch;auditory;5a1d44eeab721b0001ef9566;64c12c31e6b2738d807f8b07;64ba4c8d312ce994ea1f9971;2;8243;34;Filler
26;26;;Bachelor;with;506481;1,69038E+12;1,69038E+12;D;männlich;Deutsch;auditory;5a1d44eeab721b0001ef9566;64c12c31e6b2738d807f8b07;64ba4c8d312ce994ea1f9971;1;6678;35;Filler
26;26;;Bachelor;with;506481;1,69038E+12;1,69038E+12;C;männlich;Deutsch;auditory;5a1d44eeab721b0001ef9566;64c12c31e6b2738d807f8b07;64ba4c8d312ce994ea1f9971;6;8012;36;Filler
26;26;;Bachelor;with;506481;1,69038E+12;1,69038E+12;B;männlich;Deutsch;auditory;5a1d44eeab721b0001ef9566;64c12c31e6b2738d807f8b07;64ba4c8d312ce994ea1f9971;4;10186;37;Filler
26;26;;Bachelor;without;506481;1,69038E+12;1,69038E+12;F;männlich;Deutsch;auditory;5a1d44eeab721b0001ef9566;64c12c31e6b2738d807f8b07;64ba4c8d312ce994ea1f9971;7;6610;38;Critical
26;26;;Bachelor;with;506481;1,69038E+12;1,69038E+12;F;männlich;Deutsch;auditory;5a1d44eeab721b0001ef9566;64c12c31e6b2738d807f8b07;64ba4c8d312ce994ea1f9971;7;6302;39;Critical
26;26;;Bachelor;with;506481;1,69038E+12;1,69038E+12;B;männlich;Deutsch;auditory;5a1d44eeab721b0001ef9566;64c12c31e6b2738d807f8b07;64ba4c8d312ce994ea1f9971;4;8539;40;Filler
26;26;;Bachelor;without;506481;1,69038E+12;1,69038E+12;F;männlich;Deutsch;auditory;5a1d44eeab721b0001ef9566;64c12c31e6b2738d807f8b07;64ba4c8d312ce994ea1f9971;7;6577;41;Critical
26;26;;Bachelor;without;506481;1,69038E+12;1,69038E+12;L;männlich;Deutsch;auditory;5a1d44eeab721b0001ef9566;64c12c31e6b2738d807f8b07;64ba4c8d312ce994ea1f9971;7;6228;42;Critical
26;26;;Bachelor;without;506481;1,69038E+12;1,69038E+12;L;männlich;Deutsch;auditory;5a1d44eeab721b0001ef9566;64c12c31e6b2738d807f8b07;64ba4c8d312ce994ea1f9971;7;6525;43;Critical
26;26;;Bachelor;with;506481;1,69038E+12;1,69038E+12;E;männlich;Deutsch;auditory;5a1d44eeab721b0001ef9566;64c12c31e6b2738d807f8b07;64ba4c8d312ce994ea1f9971;6;7657;44;Filler
26;26;;Bachelor;with;506481;1,69038E+12;1,69038E+12;F;männlich;Deutsch;auditory;5a1d44eeab721b0001ef9566;64c12c31e6b2738d807f8b07;64ba4c8d312ce994ea1f9971;7;6882;45;Critical
26;26;;Bachelor;with;506481;1,69038E+12;1,69038E+12;E;männlich;Deutsch;auditory;5a1d44eeab721b0001ef9566;64c12c31e6b2738d807f8b07;64ba4c8d312ce994ea1f9971;3;10072;46;Filler
26;26;;Bachelor;without;506481;1,69038E+12;1,69038E+12;F;männlich;Deutsch;auditory;5a1d44eeab721b0001ef9566;64c12c31e6b2738d807f8b07;64ba4c8d312ce994ea1f9971;7;6601;47;Critical
26;26;;Bachelor;with;506481;1,69038E+12;1,69038E+12;C;männlich;Deutsch;auditory;5a1d44eeab721b0001ef9566;64c12c31e6b2738d807f8b07;64ba4c8d312ce994ea1f9971;5;8680;48;Filler
26;26;;Bachelor;with;506481;1,69038E+12;1,69038E+12;C;männlich;Deutsch;auditory;5a1d44eeab721b0001ef9566;64c12c31e6b2738d807f8b07;64ba4c8d312ce994ea1f9971;4;12034;49;Filler
26;26;;Bachelor;without;506481;1,69038E+12;1,69038E+12;F;männlich;Deutsch;auditory;5a1d44eeab721b0001ef9566;64c12c31e6b2738d807f8b07;64ba4c8d312ce994ea1f9971;7;5545;50;Critical
26;26;;Bachelor;with;506481;1,69038E+12;1,69038E+12;L;männlich;Deutsch;auditory;5a1d44eeab721b0001ef9566;64c12c31e6b2738d807f8b07;64ba4c8d312ce994ea1f9971;7;6211;51;Critical
26;26;;Bachelor;with;506481;1,69038E+12;1,69038E+12;A;männlich;Deutsch;auditory;5a1d44eeab721b0001ef9566;64c12c31e6b2738d807f8b07;64ba4c8d312ce994ea1f9971;7;5640;52;Filler
26;26;;Bachelor;with;506481;1,69038E+12;1,69038E+12;B;männlich;Deutsch;auditory;5a1d44eeab721b0001ef9566;64c12c31e6b2738d807f8b07;64ba4c8d312ce994ea1f9971;5;10560;53;Filler
26;26;;Bachelor;with;506481;1,69038E+12;1,69038E+12;L;männlich;Deutsch;auditory;5a1d44eeab721b0001ef9566;64c12c31e6b2738d807f8b07;64ba4c8d312ce994ea1f9971;7;5676;54;Critical
26;26;;Bachelor;with;506481;1,69038E+12;1,69038E+12;L;männlich;Deutsch;auditory;5a1d44eeab721b0001ef9566;64c12c31e6b2738d807f8b07;64ba4c8d312ce994ea1f9971;7;6757;55;Critical
26;26;;Bachelor;without;506481;1,69038E+12;1,69038E+12;F;männlich;Deutsch;auditory;5a1d44eeab721b0001ef9566;64c12c31e6b2738d807f8b07;64ba4c8d312ce994ea1f9971;7;6150;56;Critical
27;28;;Abitur;with;586158;1,69038E+12;1,69038E+12;C;männlich;Deutsch;auditory;5e94aa8e11d9b92eff5f1a16;64c12c9fa57ff5055ceb6e84;64ba4c8d312ce994ea1f9971;4;19564;1;Filler
27;28;;Abitur;without;586158;1,69038E+12;1,69038E+12;L;männlich;Deutsch;auditory;5e94aa8e11d9b92eff5f1a16;64c12c9fa57ff5055ceb6e84;64ba4c8d312ce994ea1f9971;6;25260;2;Critical
27;28;;Abitur;with;586158;1,69038E+12;1,69038E+12;L;männlich;Deutsch;auditory;5e94aa8e11d9b92eff5f1a16;64c12c9fa57ff5055ceb6e84;64ba4c8d312ce994ea1f9971;6;9147;3;Critical
27;28;;Abitur;without;586158;1,69038E+12;1,69038E+12;F;männlich;Deutsch;auditory;5e94aa8e11d9b92eff5f1a16;64c12c9fa57ff5055ceb6e84;64ba4c8d312ce994ea1f9971;5;8376;4;Critical
27;28;;Abitur;with;586158;1,69038E+12;1,69038E+12;C;männlich;Deutsch;auditory;5e94aa8e11d9b92eff5f1a16;64c12c9fa57ff5055ceb6e84;64ba4c8d312ce994ea1f9971;4;13810;5;Filler
27;28;;Abitur;with;586158;1,69038E+12;1,69038E+12;C;männlich;Deutsch;auditory;5e94aa8e11d9b92eff5f1a16;64c12c9fa57ff5055ceb6e84;64ba4c8d312ce994ea1f9971;1;9234;6;Filler
27;28;;Abitur;with;586158;1,69038E+12;1,69038E+12;E;männlich;Deutsch;auditory;5e94aa8e11d9b92eff5f1a16;64c12c9fa57ff5055ceb6e84;64ba4c8d312ce994ea1f9971;2;9379;7;Filler
27;28;;Abitur;with;586158;1,69038E+12;1,69038E+12;F;männlich;Deutsch;auditory;5e94aa8e11d9b92eff5f1a16;64c12c9fa57ff5055ceb6e84;64ba4c8d312ce994ea1f9971;7;8667;8;Critical
27;28;;Abitur;with;586158;1,69038E+12;1,69038E+12;A;männlich;Deutsch;auditory;5e94aa8e11d9b92eff5f1a16;64c12c9fa57ff5055ceb6e84;64ba4c8d312ce994ea1f9971;7;7171;9;Filler
27;28;;Abitur;with;586158;1,69038E+12;1,69038E+12;F;männlich;Deutsch;auditory;5e94aa8e11d9b92eff5f1a16;64c12c9fa57ff5055ceb6e84;64ba4c8d312ce994ea1f9971;7;9099;10;Critical
27;28;;Abitur;without;586158;1,69038E+12;1,69038E+12;F;männlich;Deutsch;auditory;5e94aa8e11d9b92eff5f1a16;64c12c9fa57ff5055ceb6e84;64ba4c8d312ce994ea1f9971;7;8995;11;Critical
27;28;;Abitur;without;586158;1,69038E+12;1,69038E+12;F;männlich;Deutsch;auditory;5e94aa8e11d9b92eff5f1a16;64c12c9fa57ff5055ceb6e84;64ba4c8d312ce994ea1f9971;7;8791;12;Critical
27;28;;Abitur;with;586158;1,69038E+12;1,69038E+12;A;männlich;Deutsch;auditory;5e94aa8e11d9b92eff5f1a16;64c12c9fa57ff5055ceb6e84;64ba4c8d312ce994ea1f9971;7;8456;13;Filler
27;28;;Abitur;with;586158;1,69038E+12;1,69038E+12;L;männlich;Deutsch;auditory;5e94aa8e11d9b92eff5f1a16;64c12c9fa57ff5055ceb6e84;64ba4c8d312ce994ea1f9971;6;10273;14;Critical
27;28;;Abitur;without;586158;1,69038E+12;1,69038E+12;F;männlich;Deutsch;auditory;5e94aa8e11d9b92eff5f1a16;64c12c9fa57ff5055ceb6e84;64ba4c8d312ce994ea1f9971;7;8088;15;Critical
27;28;;Abitur;with;586158;1,69038E+12;1,69038E+12;D;männlich;Deutsch;auditory;5e94aa8e11d9b92eff5f1a16;64c12c9fa57ff5055ceb6e84;64ba4c8d312ce994ea1f9971;1;8447;16;Filler
27;28;;Abitur;with;586158;1,69038E+12;1,69038E+12;D;männlich;Deutsch;auditory;5e94aa8e11d9b92eff5f1a16;64c12c9fa57ff5055ceb6e84;64ba4c8d312ce994ea1f9971;4;10119;17;Filler
27;28;;Abitur;with;586158;1,69038E+12;1,69038E+12;D;männlich;Deutsch;auditory;5e94aa8e11d9b92eff5f1a16;64c12c9fa57ff5055ceb6e84;64ba4c8d312ce994ea1f9971;1;10536;18;Filler
27;28;;Abitur;with;586158;1,69038E+12;1,69038E+12;A;männlich;Deutsch;auditory;5e94aa8e11d9b92eff5f1a16;64c12c9fa57ff5055ceb6e84;64ba4c8d312ce994ea1f9971;2;7435;19;Filler
27;28;;Abitur;with;586158;1,69038E+12;1,69038E+12;C;männlich;Deutsch;auditory;5e94aa8e11d9b92eff5f1a16;64c12c9fa57ff5055ceb6e84;64ba4c8d312ce994ea1f9971;3;10215;20;Filler
27;28;;Abitur;with;586158;1,69038E+12;1,69038E+12;B;männlich;Deutsch;auditory;5e94aa8e11d9b92eff5f1a16;64c12c9fa57ff5055ceb6e84;64ba4c8d312ce994ea1f9971;6;10585;21;Filler
27;28;;Abitur;with;586158;1,69038E+12;1,69038E+12;E;männlich;Deutsch;auditory;5e94aa8e11d9b92eff5f1a16;64c12c9fa57ff5055ceb6e84;64ba4c8d312ce994ea1f9971;2;8255;22;Filler
27;28;;Abitur;with;586158;1,69038E+12;1,69038E+12;B;männlich;Deutsch;auditory;5e94aa8e11d9b92eff5f1a16;64c12c9fa57ff5055ceb6e84;64ba4c8d312ce994ea1f9971;4;10161;23;Filler
27;28;;Abitur;with;586158;1,69038E+12;1,69038E+12;F;männlich;Deutsch;auditory;5e94aa8e11d9b92eff5f1a16;64c12c9fa57ff5055ceb6e84;64ba4c8d312ce994ea1f9971;7;8586;24;Critical
27;28;;Abitur;with;586158;1,69038E+12;1,69038E+12;C;männlich;Deutsch;auditory;5e94aa8e11d9b92eff5f1a16;64c12c9fa57ff5055ceb6e84;64ba4c8d312ce994ea1f9971;3;9993;25;Filler
27;28;;Abitur;with;586158;1,69038E+12;1,69038E+12;F;männlich;Deutsch;auditory;5e94aa8e11d9b92eff5f1a16;64c12c9fa57ff5055ceb6e84;64ba4c8d312ce994ea1f9971;7;8603;26;Critical
27;28;;Abitur;with;586158;1,69038E+12;1,69038E+12;B;männlich;Deutsch;auditory;5e94aa8e11d9b92eff5f1a16;64c12c9fa57ff5055ceb6e84;64ba4c8d312ce994ea1f9971;1;9999;27;Filler
27;28;;Abitur;without;586158;1,69038E+12;1,69038E+12;F;männlich;Deutsch;auditory;5e94aa8e11d9b92eff5f1a16;64c12c9fa57ff5055ceb6e84;64ba4c8d312ce994ea1f9971;7;8361;28;Critical
27;28;;Abitur;with;586158;1,69038E+12;1,69038E+12;B;männlich;Deutsch;auditory;5e94aa8e11d9b92eff5f1a16;64c12c9fa57ff5055ceb6e84;64ba4c8d312ce994ea1f9971;2;7698;29;Filler
27;28;;Abitur;without;586158;1,69038E+12;1,69038E+12;F;männlich;Deutsch;auditory;5e94aa8e11d9b92eff5f1a16;64c12c9fa57ff5055ceb6e84;64ba4c8d312ce994ea1f9971;6;8087;30;Critical
27;28;;Abitur;with;586158;1,69038E+12;1,69038E+12;L;männlich;Deutsch;auditory;5e94aa8e11d9b92eff5f1a16;64c12c9fa57ff5055ceb6e84;64ba4c8d312ce994ea1f9971;7;8257;31;Critical
27;28;;Abitur;with;586158;1,69038E+12;1,69038E+12;F;männlich;Deutsch;auditory;5e94aa8e11d9b92eff5f1a16;64c12c9fa57ff5055ceb6e84;64ba4c8d312ce994ea1f9971;7;12205;32;Critical
27;28;;Abitur;with;586158;1,69038E+12;1,69038E+12;F;männlich;Deutsch;auditory;5e94aa8e11d9b92eff5f1a16;64c12c9fa57ff5055ceb6e84;64ba4c8d312ce994ea1f9971;7;8774;33;Critical
27;28;;Abitur;with;586158;1,69038E+12;1,69038E+12;L;männlich;Deutsch;auditory;5e94aa8e11d9b92eff5f1a16;64c12c9fa57ff5055ceb6e84;64ba4c8d312ce994ea1f9971;7;7695;34;Critical
27;28;;Abitur;without;586158;1,69038E+12;1,69038E+12;L;männlich;Deutsch;auditory;5e94aa8e11d9b92eff5f1a16;64c12c9fa57ff5055ceb6e84;64ba4c8d312ce994ea1f9971;7;7373;35;Critical
27;28;;Abitur;with;586158;1,69038E+12;1,69038E+12;B;männlich;Deutsch;auditory;5e94aa8e11d9b92eff5f1a16;64c12c9fa57ff5055ceb6e84;64ba4c8d312ce994ea1f9971;1;9077;36;Filler
27;28;;Abitur;with;586158;1,69038E+12;1,69038E+12;L;männlich;Deutsch;auditory;5e94aa8e11d9b92eff5f1a16;64c12c9fa57ff5055ceb6e84;64ba4c8d312ce994ea1f9971;7;7852;37;Critical
27;28;;Abitur;with;586158;1,69038E+12;1,69038E+12;C;männlich;Deutsch;auditory;5e94aa8e11d9b92eff5f1a16;64c12c9fa57ff5055ceb6e84;64ba4c8d312ce994ea1f9971;3;11497;38;Filler
27;28;;Abitur;without;586158;1,69038E+12;1,69038E+12;F;männlich;Deutsch;auditory;5e94aa8e11d9b92eff5f1a16;64c12c9fa57ff5055ceb6e84;64ba4c8d312ce994ea1f9971;7;7064;39;Critical
27;28;;Abitur;with;586158;1,69038E+12;1,69038E+12;E;männlich;Deutsch;auditory;5e94aa8e11d9b92eff5f1a16;64c12c9fa57ff5055ceb6e84;64ba4c8d312ce994ea1f9971;1;12333;40;Filler
27;28;;Abitur;with;586158;1,69038E+12;1,69038E+12;D;männlich;Deutsch;auditory;5e94aa8e11d9b92eff5f1a16;64c12c9fa57ff5055ceb6e84;64ba4c8d312ce994ea1f9971;1;9665;41;Filler
27;28;;Abitur;with;586158;1,69038E+12;1,69038E+12;L;männlich;Deutsch;auditory;5e94aa8e11d9b92eff5f1a16;64c12c9fa57ff5055ceb6e84;64ba4c8d312ce994ea1f9971;5;14755;42;Critical
27;28;;Abitur;with;586158;1,69038E+12;1,69038E+12;A;männlich;Deutsch;auditory;5e94aa8e11d9b92eff5f1a16;64c12c9fa57ff5055ceb6e84;64ba4c8d312ce994ea1f9971;7;8531;43;Filler
27;28;;Abitur;without;586158;1,69038E+12;1,69038E+12;L;männlich;Deutsch;auditory;5e94aa8e11d9b92eff5f1a16;64c12c9fa57ff5055ceb6e84;64ba4c8d312ce994ea1f9971;7;8016;44;Critical
27;28;;Abitur;with;586158;1,69038E+12;1,69038E+12;F;männlich;Deutsch;auditory;5e94aa8e11d9b92eff5f1a16;64c12c9fa57ff5055ceb6e84;64ba4c8d312ce994ea1f9971;7;8691;45;Critical
27;28;;Abitur;without;586158;1,69038E+12;1,69038E+12;L;männlich;Deutsch;auditory;5e94aa8e11d9b92eff5f1a16;64c12c9fa57ff5055ceb6e84;64ba4c8d312ce994ea1f9971;7;7297;46;Critical
27;28;;Abitur;with;586158;1,69038E+12;1,69038E+12;E;männlich;Deutsch;auditory;5e94aa8e11d9b92eff5f1a16;64c12c9fa57ff5055ceb6e84;64ba4c8d312ce994ea1f9971;1;10696;47;Filler
27;28;;Abitur;without;586158;1,69038E+12;1,69038E+12;L;männlich;Deutsch;auditory;5e94aa8e11d9b92eff5f1a16;64c12c9fa57ff5055ceb6e84;64ba4c8d312ce994ea1f9971;7;8380;48;Critical
27;28;;Abitur;with;586158;1,69038E+12;1,69038E+12;L;männlich;Deutsch;auditory;5e94aa8e11d9b92eff5f1a16;64c12c9fa57ff5055ceb6e84;64ba4c8d312ce994ea1f9971;7;7893;49;Critical
27;28;;Abitur;with;586158;1,69038E+12;1,69038E+12;B;männlich;Deutsch;auditory;5e94aa8e11d9b92eff5f1a16;64c12c9fa57ff5055ceb6e84;64ba4c8d312ce994ea1f9971;3;10417;50;Filler
27;28;;Abitur;with;586158;1,69038E+12;1,69038E+12;A;männlich;Deutsch;auditory;5e94aa8e11d9b92eff5f1a16;64c12c9fa57ff5055ceb6e84;64ba4c8d312ce994ea1f9971;7;7822;51;Filler
27;28;;Abitur;without;586158;1,69038E+12;1,69038E+12;L;männlich;Deutsch;auditory;5e94aa8e11d9b92eff5f1a16;64c12c9fa57ff5055ceb6e84;64ba4c8d312ce994ea1f9971;6;11065;52;Critical
27;28;;Abitur;with;586158;1,69038E+12;1,69038E+12;D;männlich;Deutsch;auditory;5e94aa8e11d9b92eff5f1a16;64c12c9fa57ff5055ceb6e84;64ba4c8d312ce994ea1f9971;1;11243;53;Filler
27;28;;Abitur;with;586158;1,69038E+12;1,69038E+12;D;männlich;Deutsch;auditory;5e94aa8e11d9b92eff5f1a16;64c12c9fa57ff5055ceb6e84;64ba4c8d312ce994ea1f9971;1;8954;54;Filler
27;28;;Abitur;without;586158;1,69038E+12;1,69038E+12;L;männlich;Deutsch;auditory;5e94aa8e11d9b92eff5f1a16;64c12c9fa57ff5055ceb6e84;64ba4c8d312ce994ea1f9971;7;7431;55;Critical
27;28;;Abitur;with;586158;1,69038E+12;1,69038E+12;E;männlich;Deutsch;auditory;5e94aa8e11d9b92eff5f1a16;64c12c9fa57ff5055ceb6e84;64ba4c8d312ce994ea1f9971;4;9707;56;Filler
28;67;;Höherer Abschluss;with;700023;1,69038E+12;1,69038E+12;C;männlich;Deutsch;auditory;627e7906b82dabdbe672cdd1;64c12c31fdea2888fc821a60;64ba4c8d312ce994ea1f9971;3;20757;1;Filler
28;67;;Höherer Abschluss;with;700023;1,69038E+12;1,69038E+12;D;männlich;Deutsch;auditory;627e7906b82dabdbe672cdd1;64c12c31fdea2888fc821a60;64ba4c8d312ce994ea1f9971;4;12799;2;Filler
28;67;;Höherer Abschluss;with;700023;1,69038E+12;1,69038E+12;B;männlich;Deutsch;auditory;627e7906b82dabdbe672cdd1;64c12c31fdea2888fc821a60;64ba4c8d312ce994ea1f9971;2;14583;3;Filler
28;67;;Höherer Abschluss;with;700023;1,69038E+12;1,69038E+12;C;männlich;Deutsch;auditory;627e7906b82dabdbe672cdd1;64c12c31fdea2888fc821a60;64ba4c8d312ce994ea1f9971;3;15279;4;Filler
28;67;;Höherer Abschluss;without;700023;1,69038E+12;1,69038E+12;F;männlich;Deutsch;auditory;627e7906b82dabdbe672cdd1;64c12c31fdea2888fc821a60;64ba4c8d312ce994ea1f9971;6;11276;5;Critical
28;67;;Höherer Abschluss;without;700023;1,69038E+12;1,69038E+12;F;männlich;Deutsch;auditory;627e7906b82dabdbe672cdd1;64c12c31fdea2888fc821a60;64ba4c8d312ce994ea1f9971;7;11098;6;Critical
28;67;;Höherer Abschluss;with;700023;1,69038E+12;1,69038E+12;E;männlich;Deutsch;auditory;627e7906b82dabdbe672cdd1;64c12c31fdea2888fc821a60;64ba4c8d312ce994ea1f9971;2;13448;7;Filler
28;67;;Höherer Abschluss;with;700023;1,69038E+12;1,69038E+12;D;männlich;Deutsch;auditory;627e7906b82dabdbe672cdd1;64c12c31fdea2888fc821a60;64ba4c8d312ce994ea1f9971;3;14940;8;Filler
28;67;;Höherer Abschluss;without;700023;1,69038E+12;1,69038E+12;F;männlich;Deutsch;auditory;627e7906b82dabdbe672cdd1;64c12c31fdea2888fc821a60;64ba4c8d312ce994ea1f9971;6;11871;9;Critical
28;67;;Höherer Abschluss;with;700023;1,69038E+12;1,69038E+12;F;männlich;Deutsch;auditory;627e7906b82dabdbe672cdd1;64c12c31fdea2888fc821a60;64ba4c8d312ce994ea1f9971;6;11308;10;Critical
28;67;;Höherer Abschluss;with;700023;1,69038E+12;1,69038E+12;A;männlich;Deutsch;auditory;627e7906b82dabdbe672cdd1;64c12c31fdea2888fc821a60;64ba4c8d312ce994ea1f9971;6;10517;11;Filler
28;67;;Höherer Abschluss;without;700023;1,69038E+12;1,69038E+12;L;männlich;Deutsch;auditory;627e7906b82dabdbe672cdd1;64c12c31fdea2888fc821a60;64ba4c8d312ce994ea1f9971;6;8988;12;Critical
28;67;;Höherer Abschluss;with;700023;1,69038E+12;1,69038E+12;D;männlich;Deutsch;auditory;627e7906b82dabdbe672cdd1;64c12c31fdea2888fc821a60;64ba4c8d312ce994ea1f9971;2;10051;13;Filler
28;67;;Höherer Abschluss;with;700023;1,69038E+12;1,69038E+12;F;männlich;Deutsch;auditory;627e7906b82dabdbe672cdd1;64c12c31fdea2888fc821a60;64ba4c8d312ce994ea1f9971;6;11692;14;Critical
28;67;;Höherer Abschluss;with;700023;1,69038E+12;1,69038E+12;F;männlich;Deutsch;auditory;627e7906b82dabdbe672cdd1;64c12c31fdea2888fc821a60;64ba4c8d312ce994ea1f9971;7;10841;15;Critical
28;67;;Höherer Abschluss;without;700023;1,69038E+12;1,69038E+12;F;männlich;Deutsch;auditory;627e7906b82dabdbe672cdd1;64c12c31fdea2888fc821a60;64ba4c8d312ce994ea1f9971;7;9503;16;Critical
28;67;;Höherer Abschluss;without;700023;1,69038E+12;1,69038E+12;L;männlich;Deutsch;auditory;627e7906b82dabdbe672cdd1;64c12c31fdea2888fc821a60;64ba4c8d312ce994ea1f9971;7;9390;17;Critical
28;67;;Höherer Abschluss;with;700023;1,69038E+12;1,69038E+12;L;männlich;Deutsch;auditory;627e7906b82dabdbe672cdd1;64c12c31fdea2888fc821a60;64ba4c8d312ce994ea1f9971;7;9325;18;Critical
28;67;;Höherer Abschluss;with;700023;1,69038E+12;1,69038E+12;C;männlich;Deutsch;auditory;627e7906b82dabdbe672cdd1;64c12c31fdea2888fc821a60;64ba4c8d312ce994ea1f9971;1;14009;19;Filler
28;67;;Höherer Abschluss;with;700023;1,69038E+12;1,69038E+12;D;männlich;Deutsch;auditory;627e7906b82dabdbe672cdd1;64c12c31fdea2888fc821a60;64ba4c8d312ce994ea1f9971;1;11383;20;Filler
28;67;;Höherer Abschluss;without;700023;1,69038E+12;1,69038E+12;L;männlich;Deutsch;auditory;627e7906b82dabdbe672cdd1;64c12c31fdea2888fc821a60;64ba4c8d312ce994ea1f9971;7;11328;21;Critical
28;67;;Höherer Abschluss;with;700023;1,69038E+12;1,69038E+12;F;männlich;Deutsch;auditory;627e7906b82dabdbe672cdd1;64c12c31fdea2888fc821a60;64ba4c8d312ce994ea1f9971;7;9799;22;Critical
28;67;;Höherer Abschluss;with;700023;1,69038E+12;1,69038E+12;L;männlich;Deutsch;auditory;627e7906b82dabdbe672cdd1;64c12c31fdea2888fc821a60;64ba4c8d312ce994ea1f9971;7;8985;23;Critical
28;67;;Höherer Abschluss;with;700023;1,69038E+12;1,69038E+12;E;männlich;Deutsch;auditory;627e7906b82dabdbe672cdd1;64c12c31fdea2888fc821a60;64ba4c8d312ce994ea1f9971;1;9878;24;Filler
28;67;;Höherer Abschluss;with;700023;1,69038E+12;1,69038E+12;E;männlich;Deutsch;auditory;627e7906b82dabdbe672cdd1;64c12c31fdea2888fc821a60;64ba4c8d312ce994ea1f9971;3;8977;25;Filler
28;67;;Höherer Abschluss;without;700023;1,69038E+12;1,69038E+12;L;männlich;Deutsch;auditory;627e7906b82dabdbe672cdd1;64c12c31fdea2888fc821a60;64ba4c8d312ce994ea1f9971;7;9768;26;Critical
28;67;;Höherer Abschluss;with;700023;1,69038E+12;1,69038E+12;C;männlich;Deutsch;auditory;627e7906b82dabdbe672cdd1;64c12c31fdea2888fc821a60;64ba4c8d312ce994ea1f9971;4;12986;27;Filler
28;67;;Höherer Abschluss;with;700023;1,69038E+12;1,69038E+12;L;männlich;Deutsch;auditory;627e7906b82dabdbe672cdd1;64c12c31fdea2888fc821a60;64ba4c8d312ce994ea1f9971;7;9375;28;Critical
28;67;;Höherer Abschluss;with;700023;1,69038E+12;1,69038E+12;C;männlich;Deutsch;auditory;627e7906b82dabdbe672cdd1;64c12c31fdea2888fc821a60;64ba4c8d312ce994ea1f9971;4;13380;29;Filler
28;67;;Höherer Abschluss;with;700023;1,69038E+12;1,69038E+12;L;männlich;Deutsch;auditory;627e7906b82dabdbe672cdd1;64c12c31fdea2888fc821a60;64ba4c8d312ce994ea1f9971;7;11071;30;Critical
28;67;;Höherer Abschluss;with;700023;1,69038E+12;1,69038E+12;C;männlich;Deutsch;auditory;627e7906b82dabdbe672cdd1;64c12c31fdea2888fc821a60;64ba4c8d312ce994ea1f9971;4;11891;31;Filler
28;67;;Höherer Abschluss;with;700023;1,69038E+12;1,69038E+12;A;männlich;Deutsch;auditory;627e7906b82dabdbe672cdd1;64c12c31fdea2888fc821a60;64ba4c8d312ce994ea1f9971;7;8277;32;Filler
28;67;;Höherer Abschluss;with;700023;1,69038E+12;1,69038E+12;D;männlich;Deutsch;auditory;627e7906b82dabdbe672cdd1;64c12c31fdea2888fc821a60;64ba4c8d312ce994ea1f9971;3;11037;33;Filler
28;67;;Höherer Abschluss;without;700023;1,69038E+12;1,69038E+12;F;männlich;Deutsch;auditory;627e7906b82dabdbe672cdd1;64c12c31fdea2888fc821a60;64ba4c8d312ce994ea1f9971;7;9684;34;Critical
28;67;;Höherer Abschluss;with;700023;1,69038E+12;1,69038E+12;B;männlich;Deutsch;auditory;627e7906b82dabdbe672cdd1;64c12c31fdea2888fc821a60;64ba4c8d312ce994ea1f9971;7;12401;35;Filler
28;67;;Höherer Abschluss;with;700023;1,69038E+12;1,69038E+12;D;männlich;Deutsch;auditory;627e7906b82dabdbe672cdd1;64c12c31fdea2888fc821a60;64ba4c8d312ce994ea1f9971;3;12098;36;Filler
28;67;;Höherer Abschluss;without;700023;1,69038E+12;1,69038E+12;L;männlich;Deutsch;auditory;627e7906b82dabdbe672cdd1;64c12c31fdea2888fc821a60;64ba4c8d312ce994ea1f9971;7;8364;37;Critical
28;67;;Höherer Abschluss;with;700023;1,69038E+12;1,69038E+12;A;männlich;Deutsch;auditory;627e7906b82dabdbe672cdd1;64c12c31fdea2888fc821a60;64ba4c8d312ce994ea1f9971;7;8544;38;Filler
28;67;;Höherer Abschluss;with;700023;1,69038E+12;1,69038E+12;F;männlich;Deutsch;auditory;627e7906b82dabdbe672cdd1;64c12c31fdea2888fc821a60;64ba4c8d312ce994ea1f9971;7;8620;39;Critical
28;67;;Höherer Abschluss;without;700023;1,69038E+12;1,69038E+12;F;männlich;Deutsch;auditory;627e7906b82dabdbe672cdd1;64c12c31fdea2888fc821a60;64ba4c8d312ce994ea1f9971;7;8920;40;Critical
28;67;;Höherer Abschluss;with;700023;1,69038E+12;1,69038E+12;F;männlich;Deutsch;auditory;627e7906b82dabdbe672cdd1;64c12c31fdea2888fc821a60;64ba4c8d312ce994ea1f9971;7;9651;41;Critical
28;67;;Höherer Abschluss;with;700023;1,69038E+12;1,69038E+12;B;männlich;Deutsch;auditory;627e7906b82dabdbe672cdd1;64c12c31fdea2888fc821a60;64ba4c8d312ce994ea1f9971;7;12151;42;Filler
28;67;;Höherer Abschluss;with;700023;1,69038E+12;1,69038E+12;E;männlich;Deutsch;auditory;627e7906b82dabdbe672cdd1;64c12c31fdea2888fc821a60;64ba4c8d312ce994ea1f9971;2;10043;43;Filler
28;67;;Höherer Abschluss;with;700023;1,69038E+12;1,69038E+12;B;männlich;Deutsch;auditory;627e7906b82dabdbe672cdd1;64c12c31fdea2888fc821a60;64ba4c8d312ce994ea1f9971;5;10045;44;Filler
28;67;;Höherer Abschluss;with;700023;1,69038E+12;1,69038E+12;A;männlich;Deutsch;auditory;627e7906b82dabdbe672cdd1;64c12c31fdea2888fc821a60;64ba4c8d312ce994ea1f9971;6;10196;45;Filler
28;67;;Höherer Abschluss;with;700023;1,69038E+12;1,69038E+12;L;männlich;Deutsch;auditory;627e7906b82dabdbe672cdd1;64c12c31fdea2888fc821a60;64ba4c8d312ce994ea1f9971;6;10708;46;Critical
28;67;;Höherer Abschluss;without;700023;1,69038E+12;1,69038E+12;F;männlich;Deutsch;auditory;627e7906b82dabdbe672cdd1;64c12c31fdea2888fc821a60;64ba4c8d312ce994ea1f9971;7;9276;47;Critical
28;67;;Höherer Abschluss;without;700023;1,69038E+12;1,69038E+12;L;männlich;Deutsch;auditory;627e7906b82dabdbe672cdd1;64c12c31fdea2888fc821a60;64ba4c8d312ce994ea1f9971;7;9614;48;Critical
28;67;;Höherer Abschluss;with;700023;1,69038E+12;1,69038E+12;L;männlich;Deutsch;auditory;627e7906b82dabdbe672cdd1;64c12c31fdea2888fc821a60;64ba4c8d312ce994ea1f9971;7;11677;49;Critical
28;67;;Höherer Abschluss;with;700023;1,69038E+12;1,69038E+12;F;männlich;Deutsch;auditory;627e7906b82dabdbe672cdd1;64c12c31fdea2888fc821a60;64ba4c8d312ce994ea1f9971;7;11633;50;Critical
28;67;;Höherer Abschluss;without;700023;1,69038E+12;1,69038E+12;L;männlich;Deutsch;auditory;627e7906b82dabdbe672cdd1;64c12c31fdea2888fc821a60;64ba4c8d312ce994ea1f9971;6;10334;51;Critical
28;67;;Höherer Abschluss;with;700023;1,69038E+12;1,69038E+12;L;männlich;Deutsch;auditory;627e7906b82dabdbe672cdd1;64c12c31fdea2888fc821a60;64ba4c8d312ce994ea1f9971;7;9058;52;Critical
28;67;;Höherer Abschluss;with;700023;1,69038E+12;1,69038E+12;A;männlich;Deutsch;auditory;627e7906b82dabdbe672cdd1;64c12c31fdea2888fc821a60;64ba4c8d312ce994ea1f9971;7;9340;53;Filler
28;67;;Höherer Abschluss;with;700023;1,69038E+12;1,69038E+12;B;männlich;Deutsch;auditory;627e7906b82dabdbe672cdd1;64c12c31fdea2888fc821a60;64ba4c8d312ce994ea1f9971;5;12106;54;Filler
28;67;;Höherer Abschluss;with;700023;1,69038E+12;1,69038E+12;E;männlich;Deutsch;auditory;627e7906b82dabdbe672cdd1;64c12c31fdea2888fc821a60;64ba4c8d312ce994ea1f9971;4;9496;55;Filler
28;67;;Höherer Abschluss;with;700023;1,69038E+12;1,69038E+12;B;männlich;Deutsch;auditory;627e7906b82dabdbe672cdd1;64c12c31fdea2888fc821a60;64ba4c8d312ce994ea1f9971;3;14212;56;Filler
29;26;;kein Abitur;without;442045;1,69038E+12;1,69038E+12;C;männlich;Deutsch;written;63c658437791ac7be49f06e9;64c12d703d99268b6d58a326;64ba4c8d312ce994ea1f9971;4;13002;1;Filler
29;26;;kein Abitur;without;442045;1,69038E+12;1,69038E+12;C;männlich;Deutsch;written;63c658437791ac7be49f06e9;64c12d703d99268b6d58a326;64ba4c8d312ce994ea1f9971;5;19311;2;Filler
29;26;;kein Abitur;without;442045;1,69038E+12;1,69038E+12;C;männlich;Deutsch;written;63c658437791ac7be49f06e9;64c12d703d99268b6d58a326;64ba4c8d312ce994ea1f9971;3;24066;3;Filler
29;26;;kein Abitur;with;442045;1,69038E+12;1,69038E+12;L;männlich;Deutsch;written;63c658437791ac7be49f06e9;64c12d703d99268b6d58a326;64ba4c8d312ce994ea1f9971;7;5796;4;Critical
29;26;;kein Abitur;without;442045;1,69038E+12;1,69038E+12;F;männlich;Deutsch;written;63c658437791ac7be49f06e9;64c12d703d99268b6d58a326;64ba4c8d312ce994ea1f9971;7;5965;5;Critical
29;26;;kein Abitur;with;442045;1,69038E+12;1,69038E+12;L;männlich;Deutsch;written;63c658437791ac7be49f06e9;64c12d703d99268b6d58a326;64ba4c8d312ce994ea1f9971;7;7456;6;Critical
29;26;;kein Abitur;without;442045;1,69038E+12;1,69038E+12;D;männlich;Deutsch;written;63c658437791ac7be49f06e9;64c12d703d99268b6d58a326;64ba4c8d312ce994ea1f9971;5;8862;7;Filler
29;26;;kein Abitur;without;442045;1,69038E+12;1,69038E+12;B;männlich;Deutsch;written;63c658437791ac7be49f06e9;64c12d703d99268b6d58a326;64ba4c8d312ce994ea1f9971;4;6730;8;Filler
29;26;;kein Abitur;without;442045;1,69038E+12;1,69038E+12;L;männlich;Deutsch;written;63c658437791ac7be49f06e9;64c12d703d99268b6d58a326;64ba4c8d312ce994ea1f9971;7;3691;9;Critical
29;26;;kein Abitur;with;442045;1,69038E+12;1,69038E+12;L;männlich;Deutsch;written;63c658437791ac7be49f06e9;64c12d703d99268b6d58a326;64ba4c8d312ce994ea1f9971;7;16924;10;Critical
29;26;;kein Abitur;without;442045;1,69038E+12;1,69038E+12;D;männlich;Deutsch;written;63c658437791ac7be49f06e9;64c12d703d99268b6d58a326;64ba4c8d312ce994ea1f9971;6;8123;11;Filler
29;26;;kein Abitur;without;442045;1,69038E+12;1,69038E+12;L;männlich;Deutsch;written;63c658437791ac7be49f06e9;64c12d703d99268b6d58a326;64ba4c8d312ce994ea1f9971;7;7184;12;Critical
29;26;;kein Abitur;without;442045;1,69038E+12;1,69038E+12;E;männlich;Deutsch;written;63c658437791ac7be49f06e9;64c12d703d99268b6d58a326;64ba4c8d312ce994ea1f9971;1;7401;13;Filler
29;26;;kein Abitur;with;442045;1,69038E+12;1,69038E+12;F;männlich;Deutsch;written;63c658437791ac7be49f06e9;64c12d703d99268b6d58a326;64ba4c8d312ce994ea1f9971;7;8154;14;Critical
29;26;;kein Abitur;with;442045;1,69038E+12;1,69038E+12;F;männlich;Deutsch;written;63c658437791ac7be49f06e9;64c12d703d99268b6d58a326;64ba4c8d312ce994ea1f9971;7;4522;15;Critical
29;26;;kein Abitur;with;442045;1,69038E+12;1,69038E+12;F;männlich;Deutsch;written;63c658437791ac7be49f06e9;64c12d703d99268b6d58a326;64ba4c8d312ce994ea1f9971;7;19925;16;Critical
29;26;;kein Abitur;without;442045;1,69038E+12;1,69038E+12;A;männlich;Deutsch;written;63c658437791ac7be49f06e9;64c12d703d99268b6d58a326;64ba4c8d312ce994ea1f9971;6;6434;17;Filler
29;26;;kein Abitur;with;442045;1,69038E+12;1,69038E+12;L;männlich;Deutsch;written;63c658437791ac7be49f06e9;64c12d703d99268b6d58a326;64ba4c8d312ce994ea1f9971;7;3983;18;Critical
29;26;;kein Abitur;with;442045;1,69038E+12;1,69038E+12;L;männlich;Deutsch;written;63c658437791ac7be49f06e9;64c12d703d99268b6d58a326;64ba4c8d312ce994ea1f9971;7;2190;19;Critical
29;26;;kein Abitur;without;442045;1,69038E+12;1,69038E+12;D;männlich;Deutsch;written;63c658437791ac7be49f06e9;64c12d703d99268b6d58a326;64ba4c8d312ce994ea1f9971;3;4117;20;Filler
29;26;;kein Abitur;without;442045;1,69038E+12;1,69038E+12;D;männlich;Deutsch;written;63c658437791ac7be49f06e9;64c12d703d99268b6d58a326;64ba4c8d312ce994ea1f9971;4;8388;21;Filler
29;26;;kein Abitur;with;442045;1,69038E+12;1,69038E+12;L;männlich;Deutsch;written;63c658437791ac7be49f06e9;64c12d703d99268b6d58a326;64ba4c8d312ce994ea1f9971;7;6109;22;Critical
29;26;;kein Abitur;with;442045;1,69038E+12;1,69038E+12;F;männlich;Deutsch;written;63c658437791ac7be49f06e9;64c12d703d99268b6d58a326;64ba4c8d312ce994ea1f9971;7;13473;23;Critical
29;26;;kein Abitur;without;442045;1,69038E+12;1,69038E+12;L;männlich;Deutsch;written;63c658437791ac7be49f06e9;64c12d703d99268b6d58a326;64ba4c8d312ce994ea1f9971;7;2876;24;Critical
29;26;;kein Abitur;with;442045;1,69038E+12;1,69038E+12;F;männlich;Deutsch;written;63c658437791ac7be49f06e9;64c12d703d99268b6d58a326;64ba4c8d312ce994ea1f9971;7;3383;25;Critical
29;26;;kein Abitur;with;442045;1,69038E+12;1,69038E+12;F;männlich;Deutsch;written;63c658437791ac7be49f06e9;64c12d703d99268b6d58a326;64ba4c8d312ce994ea1f9971;7;4755;26;Critical
29;26;;kein Abitur;without;442045;1,69038E+12;1,69038E+12;F;männlich;Deutsch;written;63c658437791ac7be49f06e9;64c12d703d99268b6d58a326;64ba4c8d312ce994ea1f9971;7;3017;27;Critical
29;26;;kein Abitur;without;442045;1,69038E+12;1,69038E+12;F;männlich;Deutsch;written;63c658437791ac7be49f06e9;64c12d703d99268b6d58a326;64ba4c8d312ce994ea1f9971;7;2154;28;Critical
29;26;;kein Abitur;without;442045;1,69038E+12;1,69038E+12;D;männlich;Deutsch;written;63c658437791ac7be49f06e9;64c12d703d99268b6d58a326;64ba4c8d312ce994ea1f9971;4;8776;29;Filler
29;26;;kein Abitur;with;442045;1,69038E+12;1,69038E+12;L;männlich;Deutsch;written;63c658437791ac7be49f06e9;64c12d703d99268b6d58a326;64ba4c8d312ce994ea1f9971;7;2338;30;Critical
29;26;;kein Abitur;without;442045;1,69038E+12;1,69038E+12;B;männlich;Deutsch;written;63c658437791ac7be49f06e9;64c12d703d99268b6d58a326;64ba4c8d312ce994ea1f9971;2;7974;31;Filler
29;26;;kein Abitur;without;442045;1,69038E+12;1,69038E+12;B;männlich;Deutsch;written;63c658437791ac7be49f06e9;64c12d703d99268b6d58a326;64ba4c8d312ce994ea1f9971;4;15560;32;Filler
29;26;;kein Abitur;without;442045;1,69038E+12;1,69038E+12;L;männlich;Deutsch;written;63c658437791ac7be49f06e9;64c12d703d99268b6d58a326;64ba4c8d312ce994ea1f9971;7;2746;33;Critical
29;26;;kein Abitur;with;442045;1,69038E+12;1,69038E+12;F;männlich;Deutsch;written;63c658437791ac7be49f06e9;64c12d703d99268b6d58a326;64ba4c8d312ce994ea1f9971;7;3247;34;Critical
29;26;;kein Abitur;without;442045;1,69038E+12;1,69038E+12;F;männlich;Deutsch;written;63c658437791ac7be49f06e9;64c12d703d99268b6d58a326;64ba4c8d312ce994ea1f9971;7;2944;35;Critical
29;26;;kein Abitur;without;442045;1,69038E+12;1,69038E+12;F;männlich;Deutsch;written;63c658437791ac7be49f06e9;64c12d703d99268b6d58a326;64ba4c8d312ce994ea1f9971;7;5174;36;Critical
29;26;;kein Abitur;without;442045;1,69038E+12;1,69038E+12;B;männlich;Deutsch;written;63c658437791ac7be49f06e9;64c12d703d99268b6d58a326;64ba4c8d312ce994ea1f9971;4;11942;37;Filler
29;26;;kein Abitur;without;442045;1,69038E+12;1,69038E+12;C;männlich;Deutsch;written;63c658437791ac7be49f06e9;64c12d703d99268b6d58a326;64ba4c8d312ce994ea1f9971;2;5117;38;Filler
29;26;;kein Abitur;without;442045;1,69038E+12;1,69038E+12;L;männlich;Deutsch;written;63c658437791ac7be49f06e9;64c12d703d99268b6d58a326;64ba4c8d312ce994ea1f9971;7;3148;39;Critical
29;26;;kein Abitur;without;442045;1,69038E+12;1,69038E+12;B;männlich;Deutsch;written;63c658437791ac7be49f06e9;64c12d703d99268b6d58a326;64ba4c8d312ce994ea1f9971;5;7372;40;Filler
29;26;;kein Abitur;without;442045;1,69038E+12;1,69038E+12;A;männlich;Deutsch;written;63c658437791ac7be49f06e9;64c12d703d99268b6d58a326;64ba4c8d312ce994ea1f9971;6;5823;41;Filler
29;26;;kein Abitur;without;442045;1,69038E+12;1,69038E+12;F;männlich;Deutsch;written;63c658437791ac7be49f06e9;64c12d703d99268b6d58a326;64ba4c8d312ce994ea1f9971;7;2749;42;Critical
29;26;;kein Abitur;without;442045;1,69038E+12;1,69038E+12;L;männlich;Deutsch;written;63c658437791ac7be49f06e9;64c12d703d99268b6d58a326;64ba4c8d312ce994ea1f9971;7;5749;43;Critical
29;26;;kein Abitur;without;442045;1,69038E+12;1,69038E+12;E;männlich;Deutsch;written;63c658437791ac7be49f06e9;64c12d703d99268b6d58a326;64ba4c8d312ce994ea1f9971;2;5052;44;Filler
29;26;;kein Abitur;without;442045;1,69038E+12;1,69038E+12;C;männlich;Deutsch;written;63c658437791ac7be49f06e9;64c12d703d99268b6d58a326;64ba4c8d312ce994ea1f9971;1;13434;45;Filler
29;26;;kein Abitur;without;442045;1,69038E+12;1,69038E+12;E;männlich;Deutsch;written;63c658437791ac7be49f06e9;64c12d703d99268b6d58a326;64ba4c8d312ce994ea1f9971;3;7036;46;Filler
29;26;;kein Abitur;without;442045;1,69038E+12;1,69038E+12;A;männlich;Deutsch;written;63c658437791ac7be49f06e9;64c12d703d99268b6d58a326;64ba4c8d312ce994ea1f9971;7;3428;47;Filler
29;26;;kein Abitur;without;442045;1,69038E+12;1,69038E+12;L;männlich;Deutsch;written;63c658437791ac7be49f06e9;64c12d703d99268b6d58a326;64ba4c8d312ce994ea1f9971;7;3118;48;Critical
29;26;;kein Abitur;without;442045;1,69038E+12;1,69038E+12;A;männlich;Deutsch;written;63c658437791ac7be49f06e9;64c12d703d99268b6d58a326;64ba4c8d312ce994ea1f9971;7;3498;49;Filler
29;26;;kein Abitur;without;442045;1,69038E+12;1,69038E+12;E;männlich;Deutsch;written;63c658437791ac7be49f06e9;64c12d703d99268b6d58a326;64ba4c8d312ce994ea1f9971;1;6732;50;Filler
29;26;;kein Abitur;without;442045;1,69038E+12;1,69038E+12;B;männlich;Deutsch;written;63c658437791ac7be49f06e9;64c12d703d99268b6d58a326;64ba4c8d312ce994ea1f9971;2;6780;51;Filler
29;26;;kein Abitur;without;442045;1,69038E+12;1,69038E+12;C;männlich;Deutsch;written;63c658437791ac7be49f06e9;64c12d703d99268b6d58a326;64ba4c8d312ce994ea1f9971;1;5184;52;Filler
29;26;;kein Abitur;without;442045;1,69038E+12;1,69038E+12;E;männlich;Deutsch;written;63c658437791ac7be49f06e9;64c12d703d99268b6d58a326;64ba4c8d312ce994ea1f9971;4;4534;53;Filler
29;26;;kein Abitur;without;442045;1,69038E+12;1,69038E+12;D;männlich;Deutsch;written;63c658437791ac7be49f06e9;64c12d703d99268b6d58a326;64ba4c8d312ce994ea1f9971;3;7990;54;Filler
29;26;;kein Abitur;without;442045;1,69038E+12;1,69038E+12;F;männlich;Deutsch;written;63c658437791ac7be49f06e9;64c12d703d99268b6d58a326;64ba4c8d312ce994ea1f9971;7;3537;55;Critical
29;26;;kein Abitur;without;442045;1,69038E+12;1,69038E+12;A;männlich;Deutsch;written;63c658437791ac7be49f06e9;64c12d703d99268b6d58a326;64ba4c8d312ce994ea1f9971;7;4788;56;Filler
30;;;Abitur;with;628289;1,69038E+12;1,69038E+12;C;männlich;Deutsch;auditory;63456ccb7a78c1c4821b23ca;64c12cd30f957e9f72f02609;64ba4c8d312ce994ea1f9971;1;17160;1;Filler
30;;;Abitur;with;628289;1,69038E+12;1,69038E+12;A;männlich;Deutsch;auditory;63456ccb7a78c1c4821b23ca;64c12cd30f957e9f72f02609;64ba4c8d312ce994ea1f9971;7;8912;2;Filler
30;;;Abitur;with;628289;1,69038E+12;1,69038E+12;F;männlich;Deutsch;auditory;63456ccb7a78c1c4821b23ca;64c12cd30f957e9f72f02609;64ba4c8d312ce994ea1f9971;7;8624;3;Critical
30;;;Abitur;without;628289;1,69038E+12;1,69038E+12;F;männlich;Deutsch;auditory;63456ccb7a78c1c4821b23ca;64c12cd30f957e9f72f02609;64ba4c8d312ce994ea1f9971;7;8552;4;Critical
30;;;Abitur;with;628289;1,69038E+12;1,69038E+12;B;männlich;Deutsch;auditory;63456ccb7a78c1c4821b23ca;64c12cd30f957e9f72f02609;64ba4c8d312ce994ea1f9971;7;11464;5;Filler
30;;;Abitur;with;628289;1,69038E+12;1,69038E+12;A;männlich;Deutsch;auditory;63456ccb7a78c1c4821b23ca;64c12cd30f957e9f72f02609;64ba4c8d312ce994ea1f9971;7;8232;6;Filler
30;;;Abitur;with;628289;1,69038E+12;1,69038E+12;A;männlich;Deutsch;auditory;63456ccb7a78c1c4821b23ca;64c12cd30f957e9f72f02609;64ba4c8d312ce994ea1f9971;7;8344;7;Filler
30;;;Abitur;without;628289;1,69038E+12;1,69038E+12;F;männlich;Deutsch;auditory;63456ccb7a78c1c4821b23ca;64c12cd30f957e9f72f02609;64ba4c8d312ce994ea1f9971;7;10064;8;Critical
30;;;Abitur;without;628289;1,69038E+12;1,69038E+12;F;männlich;Deutsch;auditory;63456ccb7a78c1c4821b23ca;64c12cd30f957e9f72f02609;64ba4c8d312ce994ea1f9971;7;7656;9;Critical
30;;;Abitur;with;628289;1,69038E+12;1,69038E+12;E;männlich;Deutsch;auditory;63456ccb7a78c1c4821b23ca;64c12cd30f957e9f72f02609;64ba4c8d312ce994ea1f9971;4;11200;10;Filler
30;;;Abitur;with;628289;1,69038E+12;1,69038E+12;A;männlich;Deutsch;auditory;63456ccb7a78c1c4821b23ca;64c12cd30f957e9f72f02609;64ba4c8d312ce994ea1f9971;7;6768;11;Filler
30;;;Abitur;with;628289;1,69038E+12;1,69038E+12;L;männlich;Deutsch;auditory;63456ccb7a78c1c4821b23ca;64c12cd30f957e9f72f02609;64ba4c8d312ce994ea1f9971;7;6576;12;Critical
30;;;Abitur;with;628289;1,69038E+12;1,69038E+12;L;männlich;Deutsch;auditory;63456ccb7a78c1c4821b23ca;64c12cd30f957e9f72f02609;64ba4c8d312ce994ea1f9971;7;6512;13;Critical
30;;;Abitur;with;628289;1,69038E+12;1,69038E+12;F;männlich;Deutsch;auditory;63456ccb7a78c1c4821b23ca;64c12cd30f957e9f72f02609;64ba4c8d312ce994ea1f9971;7;6792;14;Critical
30;;;Abitur;with;628289;1,69038E+12;1,69038E+12;C;männlich;Deutsch;auditory;63456ccb7a78c1c4821b23ca;64c12cd30f957e9f72f02609;64ba4c8d312ce994ea1f9971;5;11864;15;Filler
30;;;Abitur;with;628289;1,69038E+12;1,69038E+12;C;männlich;Deutsch;auditory;63456ccb7a78c1c4821b23ca;64c12cd30f957e9f72f02609;64ba4c8d312ce994ea1f9971;7;9144;16;Filler
30;;;Abitur;with;628289;1,69038E+12;1,69038E+12;D;männlich;Deutsch;auditory;63456ccb7a78c1c4821b23ca;64c12cd30f957e9f72f02609;64ba4c8d312ce994ea1f9971;6;13288;17;Filler
30;;;Abitur;with;628289;1,69038E+12;1,69038E+12;D;männlich;Deutsch;auditory;63456ccb7a78c1c4821b23ca;64c12cd30f957e9f72f02609;64ba4c8d312ce994ea1f9971;2;16440;18;Filler
30;;;Abitur;without;628289;1,69038E+12;1,69038E+12;F;männlich;Deutsch;auditory;63456ccb7a78c1c4821b23ca;64c12cd30f957e9f72f02609;64ba4c8d312ce994ea1f9971;7;7672;19;Critical
30;;;Abitur;with;628289;1,69038E+12;1,69038E+12;L;männlich;Deutsch;auditory;63456ccb7a78c1c4821b23ca;64c12cd30f957e9f72f02609;64ba4c8d312ce994ea1f9971;7;6808;20;Critical
30;;;Abitur;with;628289;1,69038E+12;1,69038E+12;E;männlich;Deutsch;auditory;63456ccb7a78c1c4821b23ca;64c12cd30f957e9f72f02609;64ba4c8d312ce994ea1f9971;4;17016;21;Filler
30;;;Abitur;with;628289;1,69038E+12;1,69038E+12;B;männlich;Deutsch;auditory;63456ccb7a78c1c4821b23ca;64c12cd30f957e9f72f02609;64ba4c8d312ce994ea1f9971;6;11176;22;Filler
30;;;Abitur;without;628289;1,69038E+12;1,69038E+12;F;männlich;Deutsch;auditory;63456ccb7a78c1c4821b23ca;64c12cd30f957e9f72f02609;64ba4c8d312ce994ea1f9971;7;7376;23;Critical
30;;;Abitur;with;628289;1,69038E+12;1,69038E+12;L;männlich;Deutsch;auditory;63456ccb7a78c1c4821b23ca;64c12cd30f957e9f72f02609;64ba4c8d312ce994ea1f9971;7;8248;24;Critical
30;;;Abitur;with;628289;1,69038E+12;1,69038E+12;E;männlich;Deutsch;auditory;63456ccb7a78c1c4821b23ca;64c12cd30f957e9f72f02609;64ba4c8d312ce994ea1f9971;5;8280;25;Filler
30;;;Abitur;with;628289;1,69038E+12;1,69038E+12;B;männlich;Deutsch;auditory;63456ccb7a78c1c4821b23ca;64c12cd30f957e9f72f02609;64ba4c8d312ce994ea1f9971;7;21024;26;Filler
30;;;Abitur;without;628289;1,69038E+12;1,69038E+12;L;männlich;Deutsch;auditory;63456ccb7a78c1c4821b23ca;64c12cd30f957e9f72f02609;64ba4c8d312ce994ea1f9971;7;7736;27;Critical
30;;;Abitur;with;628289;1,69038E+12;1,69038E+12;L;männlich;Deutsch;auditory;63456ccb7a78c1c4821b23ca;64c12cd30f957e9f72f02609;64ba4c8d312ce994ea1f9971;7;7360;28;Critical
30;;;Abitur;with;628289;1,69038E+12;1,69038E+12;F;männlich;Deutsch;auditory;63456ccb7a78c1c4821b23ca;64c12cd30f957e9f72f02609;64ba4c8d312ce994ea1f9971;7;7608;29;Critical
30;;;Abitur;with;628289;1,69038E+12;1,69038E+12;F;männlich;Deutsch;auditory;63456ccb7a78c1c4821b23ca;64c12cd30f957e9f72f02609;64ba4c8d312ce994ea1f9971;7;8192;30;Critical
30;;;Abitur;without;628289;1,69038E+12;1,69038E+12;L;männlich;Deutsch;auditory;63456ccb7a78c1c4821b23ca;64c12cd30f957e9f72f02609;64ba4c8d312ce994ea1f9971;7;7152;31;Critical
30;;;Abitur;without;628289;1,69038E+12;1,69038E+12;L;männlich;Deutsch;auditory;63456ccb7a78c1c4821b23ca;64c12cd30f957e9f72f02609;64ba4c8d312ce994ea1f9971;7;6232;32;Critical
30;;;Abitur;without;628289;1,69038E+12;1,69038E+12;L;männlich;Deutsch;auditory;63456ccb7a78c1c4821b23ca;64c12cd30f957e9f72f02609;64ba4c8d312ce994ea1f9971;7;9264;33;Critical
30;;;Abitur;with;628289;1,69038E+12;1,69038E+12;C;männlich;Deutsch;auditory;63456ccb7a78c1c4821b23ca;64c12cd30f957e9f72f02609;64ba4c8d312ce994ea1f9971;5;20072;34;Filler
30;;;Abitur;with;628289;1,69038E+12;1,69038E+12;L;männlich;Deutsch;auditory;63456ccb7a78c1c4821b23ca;64c12cd30f957e9f72f02609;64ba4c8d312ce994ea1f9971;7;9816;35;Critical
30;;;Abitur;with;628289;1,69038E+12;1,69038E+12;C;männlich;Deutsch;auditory;63456ccb7a78c1c4821b23ca;64c12cd30f957e9f72f02609;64ba4c8d312ce994ea1f9971;7;11360;36;Filler
30;;;Abitur;with;628289;1,69038E+12;1,69038E+12;D;männlich;Deutsch;auditory;63456ccb7a78c1c4821b23ca;64c12cd30f957e9f72f02609;64ba4c8d312ce994ea1f9971;5;8208;37;Filler
30;;;Abitur;with;628289;1,69038E+12;1,69038E+12;E;männlich;Deutsch;auditory;63456ccb7a78c1c4821b23ca;64c12cd30f957e9f72f02609;64ba4c8d312ce994ea1f9971;4;7111;38;Filler
30;;;Abitur;without;628289;1,69038E+12;1,69038E+12;L;männlich;Deutsch;auditory;63456ccb7a78c1c4821b23ca;64c12cd30f957e9f72f02609;64ba4c8d312ce994ea1f9971;7;7176;39;Critical
30;;;Abitur;with;628289;1,69038E+12;1,69038E+12;E;männlich;Deutsch;auditory;63456ccb7a78c1c4821b23ca;64c12cd30f957e9f72f02609;64ba4c8d312ce994ea1f9971;5;10208;40;Filler
30;;;Abitur;with;628289;1,69038E+12;1,69038E+12;F;männlich;Deutsch;auditory;63456ccb7a78c1c4821b23ca;64c12cd30f957e9f72f02609;64ba4c8d312ce994ea1f9971;7;7888;41;Critical
30;;;Abitur;with;628289;1,69038E+12;1,69038E+12;L;männlich;Deutsch;auditory;63456ccb7a78c1c4821b23ca;64c12cd30f957e9f72f02609;64ba4c8d312ce994ea1f9971;7;7864;42;Critical
30;;;Abitur;with;628289;1,69038E+12;1,69038E+12;D;männlich;Deutsch;auditory;63456ccb7a78c1c4821b23ca;64c12cd30f957e9f72f02609;64ba4c8d312ce994ea1f9971;7;8880;43;Filler
30;;;Abitur;with;628289;1,69038E+12;1,69038E+12;F;männlich;Deutsch;auditory;63456ccb7a78c1c4821b23ca;64c12cd30f957e9f72f02609;64ba4c8d312ce994ea1f9971;7;7936;44;Critical
30;;;Abitur;with;628289;1,69038E+12;1,69038E+12;B;männlich;Deutsch;auditory;63456ccb7a78c1c4821b23ca;64c12cd30f957e9f72f02609;64ba4c8d312ce994ea1f9971;7;9776;45;Filler
30;;;Abitur;without;628289;1,69038E+12;1,69038E+12;F;männlich;Deutsch;auditory;63456ccb7a78c1c4821b23ca;64c12cd30f957e9f72f02609;64ba4c8d312ce994ea1f9971;7;8096;46;Critical
30;;;Abitur;without;628289;1,69038E+12;1,69038E+12;L;männlich;Deutsch;auditory;63456ccb7a78c1c4821b23ca;64c12cd30f957e9f72f02609;64ba4c8d312ce994ea1f9971;7;6336;47;Critical
30;;;Abitur;without;628289;1,69038E+12;1,69038E+12;L;männlich;Deutsch;auditory;63456ccb7a78c1c4821b23ca;64c12cd30f957e9f72f02609;64ba4c8d312ce994ea1f9971;7;6360;48;Critical
30;;;Abitur;with;628289;1,69038E+12;1,69038E+12;A;männlich;Deutsch;auditory;63456ccb7a78c1c4821b23ca;64c12cd30f957e9f72f02609;64ba4c8d312ce994ea1f9971;7;6968;49;Filler
30;;;Abitur;with;628289;1,69038E+12;1,69038E+12;D;männlich;Deutsch;auditory;63456ccb7a78c1c4821b23ca;64c12cd30f957e9f72f02609;64ba4c8d312ce994ea1f9971;5;11472;50;Filler
30;;;Abitur;with;628289;1,69038E+12;1,69038E+12;D;männlich;Deutsch;auditory;63456ccb7a78c1c4821b23ca;64c12cd30f957e9f72f02609;64ba4c8d312ce994ea1f9971;3;18152;51;Filler
30;;;Abitur;with;628289;1,69038E+12;1,69038E+12;C;männlich;Deutsch;auditory;63456ccb7a78c1c4821b23ca;64c12cd30f957e9f72f02609;64ba4c8d312ce994ea1f9971;6;11936;52;Filler
30;;;Abitur;with;628289;1,69038E+12;1,69038E+12;B;männlich;Deutsch;auditory;63456ccb7a78c1c4821b23ca;64c12cd30f957e9f72f02609;64ba4c8d312ce994ea1f9971;7;10984;53;Filler
30;;;Abitur;with;628289;1,69038E+12;1,69038E+12;F;männlich;Deutsch;auditory;63456ccb7a78c1c4821b23ca;64c12cd30f957e9f72f02609;64ba4c8d312ce994ea1f9971;7;6712;54;Critical
30;;;Abitur;with;628289;1,69038E+12;1,69038E+12;B;männlich;Deutsch;auditory;63456ccb7a78c1c4821b23ca;64c12cd30f957e9f72f02609;64ba4c8d312ce994ea1f9971;7;8400;55;Filler
30;;;Abitur;without;628289;1,69038E+12;1,69038E+12;F;männlich;Deutsch;auditory;63456ccb7a78c1c4821b23ca;64c12cd30f957e9f72f02609;64ba4c8d312ce994ea1f9971;7;6712;56;Critical
31;73;Heute spricht man halt so. Das ist schon fast alles erlaubt, auch wenn es der Gegenüber nicht versteht.;Höherer Abschluss;without;638614;1,69038E+12;1,69038E+12;F;männlich;Deutsch;written;615572313c3a6169680520dc;64c12cfaded69d4278d7e226;64ba4c8d312ce994ea1f9971;6;28848;1;Critical
31;73;Heute spricht man halt so. Das ist schon fast alles erlaubt, auch wenn es der Gegenüber nicht versteht.;Höherer Abschluss;without;638614;1,69038E+12;1,69038E+12;A;männlich;Deutsch;written;615572313c3a6169680520dc;64c12cfaded69d4278d7e226;64ba4c8d312ce994ea1f9971;7;12615;2;Filler
31;73;Heute spricht man halt so. Das ist schon fast alles erlaubt, auch wenn es der Gegenüber nicht versteht.;Höherer Abschluss;without;638614;1,69038E+12;1,69038E+12;B;männlich;Deutsch;written;615572313c3a6169680520dc;64c12cfaded69d4278d7e226;64ba4c8d312ce994ea1f9971;4;7978;3;Filler
