"","submission_id","age","comments","education","emphasis","experiment_duration","experiment_end_time","experiment_start_time","fragment_type","gender","languages","modality","prolific_pid","prolific_session_id","prolific_study_id","response","responseTime","trial_number","trial_type","monolingual"
"2",21,29,"","Höherer Abschluss","without",555035,"1,69021E+12","1,69021E+12","lexical","männlich","Deutsch","auditory","5d8c96e60ef92e001a7b8876","64be99c329ecc01727f259be","64ba4c8d312ce994ea1f9971",7,7873,2,"Critical","yes"
"3",21,29,"","Höherer Abschluss","with",555035,"1,69021E+12","1,69021E+12","lexical","männlich","Deutsch","auditory","5d8c96e60ef92e001a7b8876","64be99c329ecc01727f259be","64ba4c8d312ce994ea1f9971",7,9063,3,"Critical","yes"
"4",21,29,"","Höherer Abschluss","with",555035,"1,69021E+12","1,69021E+12","lexical","männlich","Deutsch","auditory","5d8c96e60ef92e001a7b8876","64be99c329ecc01727f259be","64ba4c8d312ce994ea1f9971",7,8302,4,"Critical","yes"
"6",21,29,"","Höherer Abschluss","with",555035,"1,69021E+12","1,69021E+12","functional","männlich","Deutsch","auditory","5d8c96e60ef92e001a7b8876","64be99c329ecc01727f259be","64ba4c8d312ce994ea1f9971",7,8992,6,"Critical","yes"
"7",21,29,"","Höherer Abschluss","with",555035,"1,69021E+12","1,69021E+12","functional","männlich","Deutsch","auditory","5d8c96e60ef92e001a7b8876","64be99c329ecc01727f259be","64ba4c8d312ce994ea1f9971",7,8231,7,"Critical","yes"
"9",21,29,"","Höherer Abschluss","without",555035,"1,69021E+12","1,69021E+12","functional","männlich","Deutsch","auditory","5d8c96e60ef92e001a7b8876","64be99c329ecc01727f259be","64ba4c8d312ce994ea1f9971",7,7577,9,"Critical","yes"
"12",21,29,"","Höherer Abschluss","without",555035,"1,69021E+12","1,69021E+12","functional","männlich","Deutsch","auditory","5d8c96e60ef92e001a7b8876","64be99c329ecc01727f259be","64ba4c8d312ce994ea1f9971",7,7464,12,"Critical","yes"
"14",21,29,"","Höherer Abschluss","with",555035,"1,69021E+12","1,69021E+12","lexical","männlich","Deutsch","auditory","5d8c96e60ef92e001a7b8876","64be99c329ecc01727f259be","64ba4c8d312ce994ea1f9971",7,6640,14,"Critical","yes"
"15",21,29,"","Höherer Abschluss","with",555035,"1,69021E+12","1,69021E+12","functional","männlich","Deutsch","auditory","5d8c96e60ef92e001a7b8876","64be99c329ecc01727f259be","64ba4c8d312ce994ea1f9971",7,8010,15,"Critical","yes"
"18",21,29,"","Höherer Abschluss","with",555035,"1,69021E+12","1,69021E+12","lexical","männlich","Deutsch","auditory","5d8c96e60ef92e001a7b8876","64be99c329ecc01727f259be","64ba4c8d312ce994ea1f9971",7,8388,18,"Critical","yes"
"20",21,29,"","Höherer Abschluss","with",555035,"1,69021E+12","1,69021E+12","functional","männlich","Deutsch","auditory","5d8c96e60ef92e001a7b8876","64be99c329ecc01727f259be","64ba4c8d312ce994ea1f9971",7,7384,20,"Critical","yes"
"22",21,29,"","Höherer Abschluss","without",555035,"1,69021E+12","1,69021E+12","lexical","männlich","Deutsch","auditory","5d8c96e60ef92e001a7b8876","64be99c329ecc01727f259be","64ba4c8d312ce994ea1f9971",7,6725,22,"Critical","yes"
"24",21,29,"","Höherer Abschluss","with",555035,"1,69021E+12","1,69021E+12","lexical","männlich","Deutsch","auditory","5d8c96e60ef92e001a7b8876","64be99c329ecc01727f259be","64ba4c8d312ce994ea1f9971",7,7898,24,"Critical","yes"
"26",21,29,"","Höherer Abschluss","without",555035,"1,69021E+12","1,69021E+12","functional","männlich","Deutsch","auditory","5d8c96e60ef92e001a7b8876","64be99c329ecc01727f259be","64ba4c8d312ce994ea1f9971",7,8456,26,"Critical","yes"
"27",21,29,"","Höherer Abschluss","without",555035,"1,69021E+12","1,69021E+12","functional","männlich","Deutsch","auditory","5d8c96e60ef92e001a7b8876","64be99c329ecc01727f259be","64ba4c8d312ce994ea1f9971",7,7140,27,"Critical","yes"
"29",21,29,"","Höherer Abschluss","without",555035,"1,69021E+12","1,69021E+12","functional","männlich","Deutsch","auditory","5d8c96e60ef92e001a7b8876","64be99c329ecc01727f259be","64ba4c8d312ce994ea1f9971",7,8011,29,"Critical","yes"
"30",21,29,"","Höherer Abschluss","with",555035,"1,69021E+12","1,69021E+12","lexical","männlich","Deutsch","auditory","5d8c96e60ef92e001a7b8876","64be99c329ecc01727f259be","64ba4c8d312ce994ea1f9971",7,7614,30,"Critical","yes"
"33",21,29,"","Höherer Abschluss","with",555035,"1,69021E+12","1,69021E+12","functional","männlich","Deutsch","auditory","5d8c96e60ef92e001a7b8876","64be99c329ecc01727f259be","64ba4c8d312ce994ea1f9971",7,8013,33,"Critical","yes"
"35",21,29,"","Höherer Abschluss","without",555035,"1,69021E+12","1,69021E+12","lexical","männlich","Deutsch","auditory","5d8c96e60ef92e001a7b8876","64be99c329ecc01727f259be","64ba4c8d312ce994ea1f9971",7,7513,35,"Critical","yes"
"41",21,29,"","Höherer Abschluss","without",555035,"1,69021E+12","1,69021E+12","lexical","männlich","Deutsch","auditory","5d8c96e60ef92e001a7b8876","64be99c329ecc01727f259be","64ba4c8d312ce994ea1f9971",7,6814,41,"Critical","yes"
"42",21,29,"","Höherer Abschluss","without",555035,"1,69021E+12","1,69021E+12","functional","männlich","Deutsch","auditory","5d8c96e60ef92e001a7b8876","64be99c329ecc01727f259be","64ba4c8d312ce994ea1f9971",7,7296,42,"Critical","yes"
"44",21,29,"","Höherer Abschluss","without",555035,"1,69021E+12","1,69021E+12","lexical","männlich","Deutsch","auditory","5d8c96e60ef92e001a7b8876","64be99c329ecc01727f259be","64ba4c8d312ce994ea1f9971",7,7160,44,"Critical","yes"
"45",21,29,"","Höherer Abschluss","with",555035,"1,69021E+12","1,69021E+12","functional","männlich","Deutsch","auditory","5d8c96e60ef92e001a7b8876","64be99c329ecc01727f259be","64ba4c8d312ce994ea1f9971",7,8104,45,"Critical","yes"
"47",21,29,"","Höherer Abschluss","with",555035,"1,69021E+12","1,69021E+12","lexical","männlich","Deutsch","auditory","5d8c96e60ef92e001a7b8876","64be99c329ecc01727f259be","64ba4c8d312ce994ea1f9971",7,7507,47,"Critical","yes"
"48",21,29,"","Höherer Abschluss","without",555035,"1,69021E+12","1,69021E+12","lexical","männlich","Deutsch","auditory","5d8c96e60ef92e001a7b8876","64be99c329ecc01727f259be","64ba4c8d312ce994ea1f9971",7,7880,48,"Critical","yes"
"52",21,29,"","Höherer Abschluss","with",555035,"1,69021E+12","1,69021E+12","functional","männlich","Deutsch","auditory","5d8c96e60ef92e001a7b8876","64be99c329ecc01727f259be","64ba4c8d312ce994ea1f9971",7,7950,52,"Critical","yes"
"53",21,29,"","Höherer Abschluss","without",555035,"1,69021E+12","1,69021E+12","lexical","männlich","Deutsch","auditory","5d8c96e60ef92e001a7b8876","64be99c329ecc01727f259be","64ba4c8d312ce994ea1f9971",7,7865,53,"Critical","yes"
"55",21,29,"","Höherer Abschluss","without",555035,"1,69021E+12","1,69021E+12","functional","männlich","Deutsch","auditory","5d8c96e60ef92e001a7b8876","64be99c329ecc01727f259be","64ba4c8d312ce994ea1f9971",7,7021,55,"Critical","yes"
"57",22,21,"","Abitur","without",326439,"1,69021E+12","1,69021E+12","functional","männlich","Deutsch","written","5bb8a14e002f190001a30ec7","64be96bd92df55f996900995","64ba4c8d312ce994ea1f9971",6,12332,1,"Critical","yes"
"59",22,21,"","Abitur","without",326439,"1,69021E+12","1,69021E+12","lexical","männlich","Deutsch","written","5bb8a14e002f190001a30ec7","64be96bd92df55f996900995","64ba4c8d312ce994ea1f9971",7,4228,3,"Critical","yes"
"60",22,21,"","Abitur","without",326439,"1,69021E+12","1,69021E+12","lexical","männlich","Deutsch","written","5bb8a14e002f190001a30ec7","64be96bd92df55f996900995","64ba4c8d312ce994ea1f9971",6,5618,4,"Critical","yes"
"61",22,21,"","Abitur","without",326439,"1,69021E+12","1,69021E+12","functional","männlich","Deutsch","written","5bb8a14e002f190001a30ec7","64be96bd92df55f996900995","64ba4c8d312ce994ea1f9971",6,65460,5,"Critical","yes"
"62",22,21,"","Abitur","without",326439,"1,69021E+12","1,69021E+12","lexical","männlich","Deutsch","written","5bb8a14e002f190001a30ec7","64be96bd92df55f996900995","64ba4c8d312ce994ea1f9971",6,3994,6,"Critical","yes"
"63",22,21,"","Abitur","with",326439,"1,69021E+12","1,69021E+12","lexical","männlich","Deutsch","written","5bb8a14e002f190001a30ec7","64be96bd92df55f996900995","64ba4c8d312ce994ea1f9971",6,3874,7,"Critical","yes"
"64",22,21,"","Abitur","without",326439,"1,69021E+12","1,69021E+12","lexical","männlich","Deutsch","written","5bb8a14e002f190001a30ec7","64be96bd92df55f996900995","64ba4c8d312ce994ea1f9971",7,2964,8,"Critical","yes"
"66",22,21,"","Abitur","without",326439,"1,69021E+12","1,69021E+12","functional","männlich","Deutsch","written","5bb8a14e002f190001a30ec7","64be96bd92df55f996900995","64ba4c8d312ce994ea1f9971",5,2087,10,"Critical","yes"
"67",22,21,"","Abitur","without",326439,"1,69021E+12","1,69021E+12","lexical","männlich","Deutsch","written","5bb8a14e002f190001a30ec7","64be96bd92df55f996900995","64ba4c8d312ce994ea1f9971",6,2942,11,"Critical","yes"
"75",22,21,"","Abitur","with",326439,"1,69021E+12","1,69021E+12","lexical","männlich","Deutsch","written","5bb8a14e002f190001a30ec7","64be96bd92df55f996900995","64ba4c8d312ce994ea1f9971",6,3899,19,"Critical","yes"
"78",22,21,"","Abitur","with",326439,"1,69021E+12","1,69021E+12","functional","männlich","Deutsch","written","5bb8a14e002f190001a30ec7","64be96bd92df55f996900995","64ba4c8d312ce994ea1f9971",6,2772,22,"Critical","yes"
"80",22,21,"","Abitur","without",326439,"1,69021E+12","1,69021E+12","functional","männlich","Deutsch","written","5bb8a14e002f190001a30ec7","64be96bd92df55f996900995","64ba4c8d312ce994ea1f9971",6,4303,24,"Critical","yes"
"81",22,21,"","Abitur","with",326439,"1,69021E+12","1,69021E+12","functional","männlich","Deutsch","written","5bb8a14e002f190001a30ec7","64be96bd92df55f996900995","64ba4c8d312ce994ea1f9971",6,2887,25,"Critical","yes"
"82",22,21,"","Abitur","with",326439,"1,69021E+12","1,69021E+12","lexical","männlich","Deutsch","written","5bb8a14e002f190001a30ec7","64be96bd92df55f996900995","64ba4c8d312ce994ea1f9971",6,7546,26,"Critical","yes"
"85",22,21,"","Abitur","without",326439,"1,69021E+12","1,69021E+12","lexical","männlich","Deutsch","written","5bb8a14e002f190001a30ec7","64be96bd92df55f996900995","64ba4c8d312ce994ea1f9971",6,2870,29,"Critical","yes"
"88",22,21,"","Abitur","with",326439,"1,69021E+12","1,69021E+12","functional","männlich","Deutsch","written","5bb8a14e002f190001a30ec7","64be96bd92df55f996900995","64ba4c8d312ce994ea1f9971",5,2868,32,"Critical","yes"
"90",22,21,"","Abitur","without",326439,"1,69021E+12","1,69021E+12","functional","männlich","Deutsch","written","5bb8a14e002f190001a30ec7","64be96bd92df55f996900995","64ba4c8d312ce994ea1f9971",6,5951,34,"Critical","yes"
"93",22,21,"","Abitur","with",326439,"1,69021E+12","1,69021E+12","functional","männlich","Deutsch","written","5bb8a14e002f190001a30ec7","64be96bd92df55f996900995","64ba4c8d312ce994ea1f9971",6,4083,37,"Critical","yes"
"95",22,21,"","Abitur","with",326439,"1,69021E+12","1,69021E+12","functional","männlich","Deutsch","written","5bb8a14e002f190001a30ec7","64be96bd92df55f996900995","64ba4c8d312ce994ea1f9971",6,2430,39,"Critical","yes"
"100",22,21,"","Abitur","without",326439,"1,69021E+12","1,69021E+12","functional","männlich","Deutsch","written","5bb8a14e002f190001a30ec7","64be96bd92df55f996900995","64ba4c8d312ce994ea1f9971",7,3788,44,"Critical","yes"
"101",22,21,"","Abitur","with",326439,"1,69021E+12","1,69021E+12","lexical","männlich","Deutsch","written","5bb8a14e002f190001a30ec7","64be96bd92df55f996900995","64ba4c8d312ce994ea1f9971",6,13759,45,"Critical","yes"
"103",22,21,"","Abitur","with",326439,"1,69021E+12","1,69021E+12","functional","männlich","Deutsch","written","5bb8a14e002f190001a30ec7","64be96bd92df55f996900995","64ba4c8d312ce994ea1f9971",6,3391,47,"Critical","yes"
"104",22,21,"","Abitur","without",326439,"1,69021E+12","1,69021E+12","functional","männlich","Deutsch","written","5bb8a14e002f190001a30ec7","64be96bd92df55f996900995","64ba4c8d312ce994ea1f9971",7,3303,48,"Critical","yes"
"106",22,21,"","Abitur","with",326439,"1,69021E+12","1,69021E+12","lexical","männlich","Deutsch","written","5bb8a14e002f190001a30ec7","64be96bd92df55f996900995","64ba4c8d312ce994ea1f9971",4,3747,50,"Critical","yes"
"107",22,21,"","Abitur","without",326439,"1,69021E+12","1,69021E+12","lexical","männlich","Deutsch","written","5bb8a14e002f190001a30ec7","64be96bd92df55f996900995","64ba4c8d312ce994ea1f9971",6,2103,51,"Critical","yes"
"108",22,21,"","Abitur","with",326439,"1,69021E+12","1,69021E+12","lexical","männlich","Deutsch","written","5bb8a14e002f190001a30ec7","64be96bd92df55f996900995","64ba4c8d312ce994ea1f9971",6,3044,52,"Critical","yes"
"110",22,21,"","Abitur","with",326439,"1,69021E+12","1,69021E+12","functional","männlich","Deutsch","written","5bb8a14e002f190001a30ec7","64be96bd92df55f996900995","64ba4c8d312ce994ea1f9971",6,4321,54,"Critical","yes"
"111",22,21,"","Abitur","with",326439,"1,69021E+12","1,69021E+12","lexical","männlich","Deutsch","written","5bb8a14e002f190001a30ec7","64be96bd92df55f996900995","64ba4c8d312ce994ea1f9971",6,4443,55,"Critical","yes"
"114",23,29,"","Abitur","with",627762,"1,69021E+12","1,69021E+12","lexical","männlich","deutsch","written","5e6a3e3d265930022e81c70b","64be9a10d3e12291dd6b77ca","64ba4c8d312ce994ea1f9971",7,10128,2,"Critical","yes"
"117",23,29,"","Abitur","with",627762,"1,69021E+12","1,69021E+12","lexical","männlich","deutsch","written","5e6a3e3d265930022e81c70b","64be9a10d3e12291dd6b77ca","64ba4c8d312ce994ea1f9971",7,11949,5,"Critical","yes"
"118",23,29,"","Abitur","without",627762,"1,69021E+12","1,69021E+12","lexical","männlich","deutsch","written","5e6a3e3d265930022e81c70b","64be9a10d3e12291dd6b77ca","64ba4c8d312ce994ea1f9971",7,8304,6,"Critical","yes"
"120",23,29,"","Abitur","with",627762,"1,69021E+12","1,69021E+12","lexical","männlich","deutsch","written","5e6a3e3d265930022e81c70b","64be9a10d3e12291dd6b77ca","64ba4c8d312ce994ea1f9971",7,12858,8,"Critical","yes"
"121",23,29,"","Abitur","without",627762,"1,69021E+12","1,69021E+12","functional","männlich","deutsch","written","5e6a3e3d265930022e81c70b","64be9a10d3e12291dd6b77ca","64ba4c8d312ce994ea1f9971",6,7447,9,"Critical","yes"
"123",23,29,"","Abitur","with",627762,"1,69021E+12","1,69021E+12","lexical","männlich","deutsch","written","5e6a3e3d265930022e81c70b","64be9a10d3e12291dd6b77ca","64ba4c8d312ce994ea1f9971",7,5999,11,"Critical","yes"
"125",23,29,"","Abitur","without",627762,"1,69021E+12","1,69021E+12","lexical","männlich","deutsch","written","5e6a3e3d265930022e81c70b","64be9a10d3e12291dd6b77ca","64ba4c8d312ce994ea1f9971",7,7780,13,"Critical","yes"
"127",23,29,"","Abitur","without",627762,"1,69021E+12","1,69021E+12","lexical","männlich","deutsch","written","5e6a3e3d265930022e81c70b","64be9a10d3e12291dd6b77ca","64ba4c8d312ce994ea1f9971",7,11005,15,"Critical","yes"
"130",23,29,"","Abitur","without",627762,"1,69021E+12","1,69021E+12","functional","männlich","deutsch","written","5e6a3e3d265930022e81c70b","64be9a10d3e12291dd6b77ca","64ba4c8d312ce994ea1f9971",7,9444,18,"Critical","yes"
"133",23,29,"","Abitur","without",627762,"1,69021E+12","1,69021E+12","functional","männlich","deutsch","written","5e6a3e3d265930022e81c70b","64be9a10d3e12291dd6b77ca","64ba4c8d312ce994ea1f9971",7,7207,21,"Critical","yes"
"134",23,29,"","Abitur","with",627762,"1,69021E+12","1,69021E+12","functional","männlich","deutsch","written","5e6a3e3d265930022e81c70b","64be9a10d3e12291dd6b77ca","64ba4c8d312ce994ea1f9971",7,8440,22,"Critical","yes"
"137",23,29,"","Abitur","without",627762,"1,69021E+12","1,69021E+12","functional","männlich","deutsch","written","5e6a3e3d265930022e81c70b","64be9a10d3e12291dd6b77ca","64ba4c8d312ce994ea1f9971",7,5790,25,"Critical","yes"
"139",23,29,"","Abitur","without",627762,"1,69021E+12","1,69021E+12","functional","männlich","deutsch","written","5e6a3e3d265930022e81c70b","64be9a10d3e12291dd6b77ca","64ba4c8d312ce994ea1f9971",7,15134,27,"Critical","yes"
"141",23,29,"","Abitur","without",627762,"1,69021E+12","1,69021E+12","lexical","männlich","deutsch","written","5e6a3e3d265930022e81c70b","64be9a10d3e12291dd6b77ca","64ba4c8d312ce994ea1f9971",7,4313,29,"Critical","yes"
"142",23,29,"","Abitur","without",627762,"1,69021E+12","1,69021E+12","lexical","männlich","deutsch","written","5e6a3e3d265930022e81c70b","64be9a10d3e12291dd6b77ca","64ba4c8d312ce994ea1f9971",7,4694,30,"Critical","yes"
"145",23,29,"","Abitur","with",627762,"1,69021E+12","1,69021E+12","lexical","männlich","deutsch","written","5e6a3e3d265930022e81c70b","64be9a10d3e12291dd6b77ca","64ba4c8d312ce994ea1f9971",7,9153,33,"Critical","yes"
"149",23,29,"","Abitur","without",627762,"1,69021E+12","1,69021E+12","functional","männlich","deutsch","written","5e6a3e3d265930022e81c70b","64be9a10d3e12291dd6b77ca","64ba4c8d312ce994ea1f9971",7,5004,37,"Critical","yes"
"151",23,29,"","Abitur","without",627762,"1,69021E+12","1,69021E+12","lexical","männlich","deutsch","written","5e6a3e3d265930022e81c70b","64be9a10d3e12291dd6b77ca","64ba4c8d312ce994ea1f9971",7,6852,39,"Critical","yes"
"152",23,29,"","Abitur","with",627762,"1,69021E+12","1,69021E+12","functional","männlich","deutsch","written","5e6a3e3d265930022e81c70b","64be9a10d3e12291dd6b77ca","64ba4c8d312ce994ea1f9971",7,5487,40,"Critical","yes"
"153",23,29,"","Abitur","with",627762,"1,69021E+12","1,69021E+12","functional","männlich","deutsch","written","5e6a3e3d265930022e81c70b","64be9a10d3e12291dd6b77ca","64ba4c8d312ce994ea1f9971",7,6386,41,"Critical","yes"
"154",23,29,"","Abitur","with",627762,"1,69021E+12","1,69021E+12","functional","männlich","deutsch","written","5e6a3e3d265930022e81c70b","64be9a10d3e12291dd6b77ca","64ba4c8d312ce994ea1f9971",7,13763,42,"Critical","yes"
"156",23,29,"","Abitur","with",627762,"1,69021E+12","1,69021E+12","functional","männlich","deutsch","written","5e6a3e3d265930022e81c70b","64be9a10d3e12291dd6b77ca","64ba4c8d312ce994ea1f9971",7,4924,44,"Critical","yes"
"159",23,29,"","Abitur","without",627762,"1,69021E+12","1,69021E+12","functional","männlich","deutsch","written","5e6a3e3d265930022e81c70b","64be9a10d3e12291dd6b77ca","64ba4c8d312ce994ea1f9971",7,5359,47,"Critical","yes"
"160",23,29,"","Abitur","with",627762,"1,69021E+12","1,69021E+12","lexical","männlich","deutsch","written","5e6a3e3d265930022e81c70b","64be9a10d3e12291dd6b77ca","64ba4c8d312ce994ea1f9971",7,5934,48,"Critical","yes"
"162",23,29,"","Abitur","with",627762,"1,69021E+12","1,69021E+12","functional","männlich","deutsch","written","5e6a3e3d265930022e81c70b","64be9a10d3e12291dd6b77ca","64ba4c8d312ce994ea1f9971",7,8453,50,"Critical","yes"
"163",23,29,"","Abitur","without",627762,"1,69021E+12","1,69021E+12","lexical","männlich","deutsch","written","5e6a3e3d265930022e81c70b","64be9a10d3e12291dd6b77ca","64ba4c8d312ce994ea1f9971",7,4889,51,"Critical","yes"
"164",23,29,"","Abitur","with",627762,"1,69021E+12","1,69021E+12","lexical","männlich","deutsch","written","5e6a3e3d265930022e81c70b","64be9a10d3e12291dd6b77ca","64ba4c8d312ce994ea1f9971",7,7059,52,"Critical","yes"
"168",23,29,"","Abitur","with",627762,"1,69021E+12","1,69021E+12","functional","männlich","deutsch","written","5e6a3e3d265930022e81c70b","64be9a10d3e12291dd6b77ca","64ba4c8d312ce994ea1f9971",7,3294,56,"Critical","yes"
"169",24,26,"","Bachelor","with",1731153,"1,69021E+12","1,69021E+12","functional","männlich","Deutsch","auditory","5cc47a4f68d02c00131d0d2b","64be967a74f38f7d0978c4b6","64ba4c8d312ce994ea1f9971",6,816845,1,"Critical","yes"
"171",24,26,"","Bachelor","without",1731153,"1,69021E+12","1,69021E+12","lexical","männlich","Deutsch","auditory","5cc47a4f68d02c00131d0d2b","64be967a74f38f7d0978c4b6","64ba4c8d312ce994ea1f9971",7,9279,3,"Critical","yes"
"172",24,26,"","Bachelor","without",1731153,"1,69021E+12","1,69021E+12","lexical","männlich","Deutsch","auditory","5cc47a4f68d02c00131d0d2b","64be967a74f38f7d0978c4b6","64ba4c8d312ce994ea1f9971",6,12342,4,"Critical","yes"
"173",24,26,"","Bachelor","with",1731153,"1,69021E+12","1,69021E+12","lexical","männlich","Deutsch","auditory","5cc47a4f68d02c00131d0d2b","64be967a74f38f7d0978c4b6","64ba4c8d312ce994ea1f9971",7,11917,5,"Critical","yes"
"174",24,26,"","Bachelor","with",1731153,"1,69021E+12","1,69021E+12","lexical","männlich","Deutsch","auditory","5cc47a4f68d02c00131d0d2b","64be967a74f38f7d0978c4b6","64ba4c8d312ce994ea1f9971",7,14869,6,"Critical","yes"
"176",24,26,"","Bachelor","with",1731153,"1,69021E+12","1,69021E+12","lexical","männlich","Deutsch","auditory","5cc47a4f68d02c00131d0d2b","64be967a74f38f7d0978c4b6","64ba4c8d312ce994ea1f9971",5,13679,8,"Critical","yes"
"178",24,26,"","Bachelor","with",1731153,"1,69021E+12","1,69021E+12","functional","männlich","Deutsch","auditory","5cc47a4f68d02c00131d0d2b","64be967a74f38f7d0978c4b6","64ba4c8d312ce994ea1f9971",7,9039,10,"Critical","yes"
"180",24,26,"","Bachelor","with",1731153,"1,69021E+12","1,69021E+12","lexical","männlich","Deutsch","auditory","5cc47a4f68d02c00131d0d2b","64be967a74f38f7d0978c4b6","64ba4c8d312ce994ea1f9971",6,7940,12,"Critical","yes"
"184",24,26,"","Bachelor","with",1731153,"1,69021E+12","1,69021E+12","lexical","männlich","Deutsch","auditory","5cc47a4f68d02c00131d0d2b","64be967a74f38f7d0978c4b6","64ba4c8d312ce994ea1f9971",6,8971,16,"Critical","yes"
"186",24,26,"","Bachelor","without",1731153,"1,69021E+12","1,69021E+12","functional","männlich","Deutsch","auditory","5cc47a4f68d02c00131d0d2b","64be967a74f38f7d0978c4b6","64ba4c8d312ce994ea1f9971",7,8549,18,"Critical","yes"
"189",24,26,"","Bachelor","with",1731153,"1,69021E+12","1,69021E+12","functional","männlich","Deutsch","auditory","5cc47a4f68d02c00131d0d2b","64be967a74f38f7d0978c4b6","64ba4c8d312ce994ea1f9971",7,7927,21,"Critical","yes"
"190",24,26,"","Bachelor","without",1731153,"1,69021E+12","1,69021E+12","functional","männlich","Deutsch","auditory","5cc47a4f68d02c00131d0d2b","64be967a74f38f7d0978c4b6","64ba4c8d312ce994ea1f9971",7,8200,22,"Critical","yes"
"191",24,26,"","Bachelor","without",1731153,"1,69021E+12","1,69021E+12","functional","männlich","Deutsch","auditory","5cc47a4f68d02c00131d0d2b","64be967a74f38f7d0978c4b6","64ba4c8d312ce994ea1f9971",7,7546,23,"Critical","yes"
"192",24,26,"","Bachelor","without",1731153,"1,69021E+12","1,69021E+12","lexical","männlich","Deutsch","auditory","5cc47a4f68d02c00131d0d2b","64be967a74f38f7d0978c4b6","64ba4c8d312ce994ea1f9971",7,7757,24,"Critical","yes"
"194",24,26,"","Bachelor","without",1731153,"1,69021E+12","1,69021E+12","functional","männlich","Deutsch","auditory","5cc47a4f68d02c00131d0d2b","64be967a74f38f7d0978c4b6","64ba4c8d312ce994ea1f9971",7,7686,26,"Critical","yes"
"198",24,26,"","Bachelor","without",1731153,"1,69021E+12","1,69021E+12","functional","männlich","Deutsch","auditory","5cc47a4f68d02c00131d0d2b","64be967a74f38f7d0978c4b6","64ba4c8d312ce994ea1f9971",7,7517,30,"Critical","yes"
"199",24,26,"","Bachelor","without",1731153,"1,69021E+12","1,69021E+12","functional","männlich","Deutsch","auditory","5cc47a4f68d02c00131d0d2b","64be967a74f38f7d0978c4b6","64ba4c8d312ce994ea1f9971",7,8349,31,"Critical","yes"
"200",24,26,"","Bachelor","with",1731153,"1,69021E+12","1,69021E+12","lexical","männlich","Deutsch","auditory","5cc47a4f68d02c00131d0d2b","64be967a74f38f7d0978c4b6","64ba4c8d312ce994ea1f9971",7,7731,32,"Critical","yes"
"201",24,26,"","Bachelor","with",1731153,"1,69021E+12","1,69021E+12","lexical","männlich","Deutsch","auditory","5cc47a4f68d02c00131d0d2b","64be967a74f38f7d0978c4b6","64ba4c8d312ce994ea1f9971",7,7769,33,"Critical","yes"
"203",24,26,"","Bachelor","without",1731153,"1,69021E+12","1,69021E+12","functional","männlich","Deutsch","auditory","5cc47a4f68d02c00131d0d2b","64be967a74f38f7d0978c4b6","64ba4c8d312ce994ea1f9971",7,8563,35,"Critical","yes"
"204",24,26,"","Bachelor","without",1731153,"1,69021E+12","1,69021E+12","lexical","männlich","Deutsch","auditory","5cc47a4f68d02c00131d0d2b","64be967a74f38f7d0978c4b6","64ba4c8d312ce994ea1f9971",7,6634,36,"Critical","yes"
"211",24,26,"","Bachelor","with",1731153,"1,69021E+12","1,69021E+12","functional","männlich","Deutsch","auditory","5cc47a4f68d02c00131d0d2b","64be967a74f38f7d0978c4b6","64ba4c8d312ce994ea1f9971",7,7413,43,"Critical","yes"
"213",24,26,"","Bachelor","without",1731153,"1,69021E+12","1,69021E+12","lexical","männlich","Deutsch","auditory","5cc47a4f68d02c00131d0d2b","64be967a74f38f7d0978c4b6","64ba4c8d312ce994ea1f9971",7,6376,45,"Critical","yes"
"216",24,26,"","Bachelor","with",1731153,"1,69021E+12","1,69021E+12","functional","männlich","Deutsch","auditory","5cc47a4f68d02c00131d0d2b","64be967a74f38f7d0978c4b6","64ba4c8d312ce994ea1f9971",7,8565,48,"Critical","yes"
"217",24,26,"","Bachelor","without",1731153,"1,69021E+12","1,69021E+12","lexical","männlich","Deutsch","auditory","5cc47a4f68d02c00131d0d2b","64be967a74f38f7d0978c4b6","64ba4c8d312ce994ea1f9971",7,8798,49,"Critical","yes"
"222",24,26,"","Bachelor","without",1731153,"1,69021E+12","1,69021E+12","lexical","männlich","Deutsch","auditory","5cc47a4f68d02c00131d0d2b","64be967a74f38f7d0978c4b6","64ba4c8d312ce994ea1f9971",7,6383,54,"Critical","yes"
"223",24,26,"","Bachelor","with",1731153,"1,69021E+12","1,69021E+12","functional","männlich","Deutsch","auditory","5cc47a4f68d02c00131d0d2b","64be967a74f38f7d0978c4b6","64ba4c8d312ce994ea1f9971",7,11486,55,"Critical","yes"
"224",24,26,"","Bachelor","with",1731153,"1,69021E+12","1,69021E+12","functional","männlich","Deutsch","auditory","5cc47a4f68d02c00131d0d2b","64be967a74f38f7d0978c4b6","64ba4c8d312ce994ea1f9971",7,8992,56,"Critical","yes"
"225",25,29,"","Höherer Abschluss","without",561597,"1,69038E+12","1,69038E+12","lexical","weiblich","Deutsch","auditory","5fcf9f17f5a7c20ba38e9cc9","64c12be061515deaa048cd80","64ba4c8d312ce994ea1f9971",6,13122,1,"Critical","yes"
"227",25,29,"","Höherer Abschluss","without",561597,"1,69038E+12","1,69038E+12","functional","weiblich","Deutsch","auditory","5fcf9f17f5a7c20ba38e9cc9","64c12be061515deaa048cd80","64ba4c8d312ce994ea1f9971",7,13168,3,"Critical","yes"
"229",25,29,"","Höherer Abschluss","with",561597,"1,69038E+12","1,69038E+12","lexical","weiblich","Deutsch","auditory","5fcf9f17f5a7c20ba38e9cc9","64c12be061515deaa048cd80","64ba4c8d312ce994ea1f9971",6,8696,5,"Critical","yes"
"230",25,29,"","Höherer Abschluss","with",561597,"1,69038E+12","1,69038E+12","lexical","weiblich","Deutsch","auditory","5fcf9f17f5a7c20ba38e9cc9","64c12be061515deaa048cd80","64ba4c8d312ce994ea1f9971",6,8427,6,"Critical","yes"
"231",25,29,"","Höherer Abschluss","with",561597,"1,69038E+12","1,69038E+12","lexical","weiblich","Deutsch","auditory","5fcf9f17f5a7c20ba38e9cc9","64c12be061515deaa048cd80","64ba4c8d312ce994ea1f9971",6,8754,7,"Critical","yes"
"232",25,29,"","Höherer Abschluss","without",561597,"1,69038E+12","1,69038E+12","functional","weiblich","Deutsch","auditory","5fcf9f17f5a7c20ba38e9cc9","64c12be061515deaa048cd80","64ba4c8d312ce994ea1f9971",7,8366,8,"Critical","yes"
"233",25,29,"","Höherer Abschluss","without",561597,"1,69038E+12","1,69038E+12","lexical","weiblich","Deutsch","auditory","5fcf9f17f5a7c20ba38e9cc9","64c12be061515deaa048cd80","64ba4c8d312ce994ea1f9971",6,9036,9,"Critical","yes"
"234",25,29,"","Höherer Abschluss","with",561597,"1,69038E+12","1,69038E+12","lexical","weiblich","Deutsch","auditory","5fcf9f17f5a7c20ba38e9cc9","64c12be061515deaa048cd80","64ba4c8d312ce994ea1f9971",7,7889,10,"Critical","yes"
"235",25,29,"","Höherer Abschluss","with",561597,"1,69038E+12","1,69038E+12","functional","weiblich","Deutsch","auditory","5fcf9f17f5a7c20ba38e9cc9","64c12be061515deaa048cd80","64ba4c8d312ce994ea1f9971",6,8587,11,"Critical","yes"
"239",25,29,"","Höherer Abschluss","with",561597,"1,69038E+12","1,69038E+12","functional","weiblich","Deutsch","auditory","5fcf9f17f5a7c20ba38e9cc9","64c12be061515deaa048cd80","64ba4c8d312ce994ea1f9971",7,8488,15,"Critical","yes"
"240",25,29,"","Höherer Abschluss","with",561597,"1,69038E+12","1,69038E+12","lexical","weiblich","Deutsch","auditory","5fcf9f17f5a7c20ba38e9cc9","64c12be061515deaa048cd80","64ba4c8d312ce994ea1f9971",7,7573,16,"Critical","yes"
"241",25,29,"","Höherer Abschluss","with",561597,"1,69038E+12","1,69038E+12","functional","weiblich","Deutsch","auditory","5fcf9f17f5a7c20ba38e9cc9","64c12be061515deaa048cd80","64ba4c8d312ce994ea1f9971",7,8736,17,"Critical","yes"
"242",25,29,"","Höherer Abschluss","without",561597,"1,69038E+12","1,69038E+12","lexical","weiblich","Deutsch","auditory","5fcf9f17f5a7c20ba38e9cc9","64c12be061515deaa048cd80","64ba4c8d312ce994ea1f9971",7,9024,18,"Critical","yes"
"245",25,29,"","Höherer Abschluss","without",561597,"1,69038E+12","1,69038E+12","lexical","weiblich","Deutsch","auditory","5fcf9f17f5a7c20ba38e9cc9","64c12be061515deaa048cd80","64ba4c8d312ce994ea1f9971",7,13243,21,"Critical","yes"
"246",25,29,"","Höherer Abschluss","without",561597,"1,69038E+12","1,69038E+12","functional","weiblich","Deutsch","auditory","5fcf9f17f5a7c20ba38e9cc9","64c12be061515deaa048cd80","64ba4c8d312ce994ea1f9971",7,8587,22,"Critical","yes"
"249",25,29,"","Höherer Abschluss","with",561597,"1,69038E+12","1,69038E+12","lexical","weiblich","Deutsch","auditory","5fcf9f17f5a7c20ba38e9cc9","64c12be061515deaa048cd80","64ba4c8d312ce994ea1f9971",7,8613,25,"Critical","yes"
"251",25,29,"","Höherer Abschluss","with",561597,"1,69038E+12","1,69038E+12","lexical","weiblich","Deutsch","auditory","5fcf9f17f5a7c20ba38e9cc9","64c12be061515deaa048cd80","64ba4c8d312ce994ea1f9971",7,8492,27,"Critical","yes"
"255",25,29,"","Höherer Abschluss","with",561597,"1,69038E+12","1,69038E+12","functional","weiblich","Deutsch","auditory","5fcf9f17f5a7c20ba38e9cc9","64c12be061515deaa048cd80","64ba4c8d312ce994ea1f9971",7,9441,31,"Critical","yes"
"260",25,29,"","Höherer Abschluss","without",561597,"1,69038E+12","1,69038E+12","functional","weiblich","Deutsch","auditory","5fcf9f17f5a7c20ba38e9cc9","64c12be061515deaa048cd80","64ba4c8d312ce994ea1f9971",7,6875,36,"Critical","yes"
"262",25,29,"","Höherer Abschluss","without",561597,"1,69038E+12","1,69038E+12","functional","weiblich","Deutsch","auditory","5fcf9f17f5a7c20ba38e9cc9","64c12be061515deaa048cd80","64ba4c8d312ce994ea1f9971",7,8352,38,"Critical","yes"
"263",25,29,"","Höherer Abschluss","with",561597,"1,69038E+12","1,69038E+12","functional","weiblich","Deutsch","auditory","5fcf9f17f5a7c20ba38e9cc9","64c12be061515deaa048cd80","64ba4c8d312ce994ea1f9971",7,8527,39,"Critical","yes"
"270",25,29,"","Höherer Abschluss","with",561597,"1,69038E+12","1,69038E+12","functional","weiblich","Deutsch","auditory","5fcf9f17f5a7c20ba38e9cc9","64c12be061515deaa048cd80","64ba4c8d312ce994ea1f9971",7,8911,46,"Critical","yes"
"271",25,29,"","Höherer Abschluss","without",561597,"1,69038E+12","1,69038E+12","functional","weiblich","Deutsch","auditory","5fcf9f17f5a7c20ba38e9cc9","64c12be061515deaa048cd80","64ba4c8d312ce994ea1f9971",7,7597,47,"Critical","yes"
"274",25,29,"","Höherer Abschluss","without",561597,"1,69038E+12","1,69038E+12","functional","weiblich","Deutsch","auditory","5fcf9f17f5a7c20ba38e9cc9","64c12be061515deaa048cd80","64ba4c8d312ce994ea1f9971",7,7345,50,"Critical","yes"
"275",25,29,"","Höherer Abschluss","without",561597,"1,69038E+12","1,69038E+12","lexical","weiblich","Deutsch","auditory","5fcf9f17f5a7c20ba38e9cc9","64c12be061515deaa048cd80","64ba4c8d312ce994ea1f9971",7,7262,51,"Critical","yes"
"277",25,29,"","Höherer Abschluss","without",561597,"1,69038E+12","1,69038E+12","lexical","weiblich","Deutsch","auditory","5fcf9f17f5a7c20ba38e9cc9","64c12be061515deaa048cd80","64ba4c8d312ce994ea1f9971",7,6816,53,"Critical","yes"
"278",25,29,"","Höherer Abschluss","without",561597,"1,69038E+12","1,69038E+12","lexical","weiblich","Deutsch","auditory","5fcf9f17f5a7c20ba38e9cc9","64c12be061515deaa048cd80","64ba4c8d312ce994ea1f9971",7,7033,54,"Critical","yes"
"279",25,29,"","Höherer Abschluss","with",561597,"1,69038E+12","1,69038E+12","functional","weiblich","Deutsch","auditory","5fcf9f17f5a7c20ba38e9cc9","64c12be061515deaa048cd80","64ba4c8d312ce994ea1f9971",7,8393,55,"Critical","yes"
"281",26,26,"","Bachelor","with",506481,"1,69038E+12","1,69038E+12","functional","männlich","Deutsch","auditory","5a1d44eeab721b0001ef9566","64c12c31e6b2738d807f8b07","64ba4c8d312ce994ea1f9971",7,16896,1,"Critical","yes"
"282",26,26,"","Bachelor","without",506481,"1,69038E+12","1,69038E+12","functional","männlich","Deutsch","auditory","5a1d44eeab721b0001ef9566","64c12c31e6b2738d807f8b07","64ba4c8d312ce994ea1f9971",7,8598,2,"Critical","yes"
"283",26,26,"","Bachelor","with",506481,"1,69038E+12","1,69038E+12","lexical","männlich","Deutsch","auditory","5a1d44eeab721b0001ef9566","64c12c31e6b2738d807f8b07","64ba4c8d312ce994ea1f9971",7,7583,3,"Critical","yes"
"284",26,26,"","Bachelor","with",506481,"1,69038E+12","1,69038E+12","functional","männlich","Deutsch","auditory","5a1d44eeab721b0001ef9566","64c12c31e6b2738d807f8b07","64ba4c8d312ce994ea1f9971",7,7917,4,"Critical","yes"
"287",26,26,"","Bachelor","with",506481,"1,69038E+12","1,69038E+12","functional","männlich","Deutsch","auditory","5a1d44eeab721b0001ef9566","64c12c31e6b2738d807f8b07","64ba4c8d312ce994ea1f9971",7,8132,7,"Critical","yes"
"288",26,26,"","Bachelor","without",506481,"1,69038E+12","1,69038E+12","lexical","männlich","Deutsch","auditory","5a1d44eeab721b0001ef9566","64c12c31e6b2738d807f8b07","64ba4c8d312ce994ea1f9971",7,6096,8,"Critical","yes"
"291",26,26,"","Bachelor","with",506481,"1,69038E+12","1,69038E+12","lexical","männlich","Deutsch","auditory","5a1d44eeab721b0001ef9566","64c12c31e6b2738d807f8b07","64ba4c8d312ce994ea1f9971",7,6503,11,"Critical","yes"
"293",26,26,"","Bachelor","without",506481,"1,69038E+12","1,69038E+12","functional","männlich","Deutsch","auditory","5a1d44eeab721b0001ef9566","64c12c31e6b2738d807f8b07","64ba4c8d312ce994ea1f9971",7,6822,13,"Critical","yes"
"297",26,26,"","Bachelor","without",506481,"1,69038E+12","1,69038E+12","lexical","männlich","Deutsch","auditory","5a1d44eeab721b0001ef9566","64c12c31e6b2738d807f8b07","64ba4c8d312ce994ea1f9971",7,6387,17,"Critical","yes"
"299",26,26,"","Bachelor","with",506481,"1,69038E+12","1,69038E+12","functional","männlich","Deutsch","auditory","5a1d44eeab721b0001ef9566","64c12c31e6b2738d807f8b07","64ba4c8d312ce994ea1f9971",7,7311,19,"Critical","yes"
"301",26,26,"","Bachelor","with",506481,"1,69038E+12","1,69038E+12","lexical","männlich","Deutsch","auditory","5a1d44eeab721b0001ef9566","64c12c31e6b2738d807f8b07","64ba4c8d312ce994ea1f9971",7,6643,21,"Critical","yes"
"303",26,26,"","Bachelor","without",506481,"1,69038E+12","1,69038E+12","lexical","männlich","Deutsch","auditory","5a1d44eeab721b0001ef9566","64c12c31e6b2738d807f8b07","64ba4c8d312ce994ea1f9971",7,6626,23,"Critical","yes"
"307",26,26,"","Bachelor","with",506481,"1,69038E+12","1,69038E+12","functional","männlich","Deutsch","auditory","5a1d44eeab721b0001ef9566","64c12c31e6b2738d807f8b07","64ba4c8d312ce994ea1f9971",7,6907,27,"Critical","yes"
"309",26,26,"","Bachelor","without",506481,"1,69038E+12","1,69038E+12","lexical","männlich","Deutsch","auditory","5a1d44eeab721b0001ef9566","64c12c31e6b2738d807f8b07","64ba4c8d312ce994ea1f9971",7,7015,29,"Critical","yes"
"312",26,26,"","Bachelor","without",506481,"1,69038E+12","1,69038E+12","lexical","männlich","Deutsch","auditory","5a1d44eeab721b0001ef9566","64c12c31e6b2738d807f8b07","64ba4c8d312ce994ea1f9971",7,5796,32,"Critical","yes"
"313",26,26,"","Bachelor","with",506481,"1,69038E+12","1,69038E+12","lexical","männlich","Deutsch","auditory","5a1d44eeab721b0001ef9566","64c12c31e6b2738d807f8b07","64ba4c8d312ce994ea1f9971",7,7926,33,"Critical","yes"
"318",26,26,"","Bachelor","without",506481,"1,69038E+12","1,69038E+12","functional","männlich","Deutsch","auditory","5a1d44eeab721b0001ef9566","64c12c31e6b2738d807f8b07","64ba4c8d312ce994ea1f9971",7,6610,38,"Critical","yes"
"319",26,26,"","Bachelor","with",506481,"1,69038E+12","1,69038E+12","functional","männlich","Deutsch","auditory","5a1d44eeab721b0001ef9566","64c12c31e6b2738d807f8b07","64ba4c8d312ce994ea1f9971",7,6302,39,"Critical","yes"
"321",26,26,"","Bachelor","without",506481,"1,69038E+12","1,69038E+12","functional","männlich","Deutsch","auditory","5a1d44eeab721b0001ef9566","64c12c31e6b2738d807f8b07","64ba4c8d312ce994ea1f9971",7,6577,41,"Critical","yes"
"322",26,26,"","Bachelor","without",506481,"1,69038E+12","1,69038E+12","lexical","männlich","Deutsch","auditory","5a1d44eeab721b0001ef9566","64c12c31e6b2738d807f8b07","64ba4c8d312ce994ea1f9971",7,6228,42,"Critical","yes"
"323",26,26,"","Bachelor","without",506481,"1,69038E+12","1,69038E+12","lexical","männlich","Deutsch","auditory","5a1d44eeab721b0001ef9566","64c12c31e6b2738d807f8b07","64ba4c8d312ce994ea1f9971",7,6525,43,"Critical","yes"
"325",26,26,"","Bachelor","with",506481,"1,69038E+12","1,69038E+12","functional","männlich","Deutsch","auditory","5a1d44eeab721b0001ef9566","64c12c31e6b2738d807f8b07","64ba4c8d312ce994ea1f9971",7,6882,45,"Critical","yes"
"327",26,26,"","Bachelor","without",506481,"1,69038E+12","1,69038E+12","functional","männlich","Deutsch","auditory","5a1d44eeab721b0001ef9566","64c12c31e6b2738d807f8b07","64ba4c8d312ce994ea1f9971",7,6601,47,"Critical","yes"
"330",26,26,"","Bachelor","without",506481,"1,69038E+12","1,69038E+12","functional","männlich","Deutsch","auditory","5a1d44eeab721b0001ef9566","64c12c31e6b2738d807f8b07","64ba4c8d312ce994ea1f9971",7,5545,50,"Critical","yes"
"331",26,26,"","Bachelor","with",506481,"1,69038E+12","1,69038E+12","lexical","männlich","Deutsch","auditory","5a1d44eeab721b0001ef9566","64c12c31e6b2738d807f8b07","64ba4c8d312ce994ea1f9971",7,6211,51,"Critical","yes"
"334",26,26,"","Bachelor","with",506481,"1,69038E+12","1,69038E+12","lexical","männlich","Deutsch","auditory","5a1d44eeab721b0001ef9566","64c12c31e6b2738d807f8b07","64ba4c8d312ce994ea1f9971",7,5676,54,"Critical","yes"
"335",26,26,"","Bachelor","with",506481,"1,69038E+12","1,69038E+12","lexical","männlich","Deutsch","auditory","5a1d44eeab721b0001ef9566","64c12c31e6b2738d807f8b07","64ba4c8d312ce994ea1f9971",7,6757,55,"Critical","yes"
"336",26,26,"","Bachelor","without",506481,"1,69038E+12","1,69038E+12","functional","männlich","Deutsch","auditory","5a1d44eeab721b0001ef9566","64c12c31e6b2738d807f8b07","64ba4c8d312ce994ea1f9971",7,6150,56,"Critical","yes"
"338",27,28,"","Abitur","without",586158,"1,69038E+12","1,69038E+12","lexical","männlich","Deutsch","auditory","5e94aa8e11d9b92eff5f1a16","64c12c9fa57ff5055ceb6e84","64ba4c8d312ce994ea1f9971",6,25260,2,"Critical","yes"
"339",27,28,"","Abitur","with",586158,"1,69038E+12","1,69038E+12","lexical","männlich","Deutsch","auditory","5e94aa8e11d9b92eff5f1a16","64c12c9fa57ff5055ceb6e84","64ba4c8d312ce994ea1f9971",6,9147,3,"Critical","yes"
"340",27,28,"","Abitur","without",586158,"1,69038E+12","1,69038E+12","functional","männlich","Deutsch","auditory","5e94aa8e11d9b92eff5f1a16","64c12c9fa57ff5055ceb6e84","64ba4c8d312ce994ea1f9971",5,8376,4,"Critical","yes"
"344",27,28,"","Abitur","with",586158,"1,69038E+12","1,69038E+12","functional","männlich","Deutsch","auditory","5e94aa8e11d9b92eff5f1a16","64c12c9fa57ff5055ceb6e84","64ba4c8d312ce994ea1f9971",7,8667,8,"Critical","yes"
"346",27,28,"","Abitur","with",586158,"1,69038E+12","1,69038E+12","functional","männlich","Deutsch","auditory","5e94aa8e11d9b92eff5f1a16","64c12c9fa57ff5055ceb6e84","64ba4c8d312ce994ea1f9971",7,9099,10,"Critical","yes"
"347",27,28,"","Abitur","without",586158,"1,69038E+12","1,69038E+12","functional","männlich","Deutsch","auditory","5e94aa8e11d9b92eff5f1a16","64c12c9fa57ff5055ceb6e84","64ba4c8d312ce994ea1f9971",7,8995,11,"Critical","yes"
"348",27,28,"","Abitur","without",586158,"1,69038E+12","1,69038E+12","functional","männlich","Deutsch","auditory","5e94aa8e11d9b92eff5f1a16","64c12c9fa57ff5055ceb6e84","64ba4c8d312ce994ea1f9971",7,8791,12,"Critical","yes"
"350",27,28,"","Abitur","with",586158,"1,69038E+12","1,69038E+12","lexical","männlich","Deutsch","auditory","5e94aa8e11d9b92eff5f1a16","64c12c9fa57ff5055ceb6e84","64ba4c8d312ce994ea1f9971",6,10273,14,"Critical","yes"
"351",27,28,"","Abitur","without",586158,"1,69038E+12","1,69038E+12","functional","männlich","Deutsch","auditory","5e94aa8e11d9b92eff5f1a16","64c12c9fa57ff5055ceb6e84","64ba4c8d312ce994ea1f9971",7,8088,15,"Critical","yes"
"360",27,28,"","Abitur","with",586158,"1,69038E+12","1,69038E+12","functional","männlich","Deutsch","auditory","5e94aa8e11d9b92eff5f1a16","64c12c9fa57ff5055ceb6e84","64ba4c8d312ce994ea1f9971",7,8586,24,"Critical","yes"
"362",27,28,"","Abitur","with",586158,"1,69038E+12","1,69038E+12","functional","männlich","Deutsch","auditory","5e94aa8e11d9b92eff5f1a16","64c12c9fa57ff5055ceb6e84","64ba4c8d312ce994ea1f9971",7,8603,26,"Critical","yes"
"364",27,28,"","Abitur","without",586158,"1,69038E+12","1,69038E+12","functional","männlich","Deutsch","auditory","5e94aa8e11d9b92eff5f1a16","64c12c9fa57ff5055ceb6e84","64ba4c8d312ce994ea1f9971",7,8361,28,"Critical","yes"
"366",27,28,"","Abitur","without",586158,"1,69038E+12","1,69038E+12","functional","männlich","Deutsch","auditory","5e94aa8e11d9b92eff5f1a16","64c12c9fa57ff5055ceb6e84","64ba4c8d312ce994ea1f9971",6,8087,30,"Critical","yes"
"367",27,28,"","Abitur","with",586158,"1,69038E+12","1,69038E+12","lexical","männlich","Deutsch","auditory","5e94aa8e11d9b92eff5f1a16","64c12c9fa57ff5055ceb6e84","64ba4c8d312ce994ea1f9971",7,8257,31,"Critical","yes"
"368",27,28,"","Abitur","with",586158,"1,69038E+12","1,69038E+12","functional","männlich","Deutsch","auditory","5e94aa8e11d9b92eff5f1a16","64c12c9fa57ff5055ceb6e84","64ba4c8d312ce994ea1f9971",7,12205,32,"Critical","yes"
"369",27,28,"","Abitur","with",586158,"1,69038E+12","1,69038E+12","functional","männlich","Deutsch","auditory","5e94aa8e11d9b92eff5f1a16","64c12c9fa57ff5055ceb6e84","64ba4c8d312ce994ea1f9971",7,8774,33,"Critical","yes"
"370",27,28,"","Abitur","with",586158,"1,69038E+12","1,69038E+12","lexical","männlich","Deutsch","auditory","5e94aa8e11d9b92eff5f1a16","64c12c9fa57ff5055ceb6e84","64ba4c8d312ce994ea1f9971",7,7695,34,"Critical","yes"
"371",27,28,"","Abitur","without",586158,"1,69038E+12","1,69038E+12","lexical","männlich","Deutsch","auditory","5e94aa8e11d9b92eff5f1a16","64c12c9fa57ff5055ceb6e84","64ba4c8d312ce994ea1f9971",7,7373,35,"Critical","yes"
"373",27,28,"","Abitur","with",586158,"1,69038E+12","1,69038E+12","lexical","männlich","Deutsch","auditory","5e94aa8e11d9b92eff5f1a16","64c12c9fa57ff5055ceb6e84","64ba4c8d312ce994ea1f9971",7,7852,37,"Critical","yes"
"375",27,28,"","Abitur","without",586158,"1,69038E+12","1,69038E+12","functional","männlich","Deutsch","auditory","5e94aa8e11d9b92eff5f1a16","64c12c9fa57ff5055ceb6e84","64ba4c8d312ce994ea1f9971",7,7064,39,"Critical","yes"
"378",27,28,"","Abitur","with",586158,"1,69038E+12","1,69038E+12","lexical","männlich","Deutsch","auditory","5e94aa8e11d9b92eff5f1a16","64c12c9fa57ff5055ceb6e84","64ba4c8d312ce994ea1f9971",5,14755,42,"Critical","yes"
"380",27,28,"","Abitur","without",586158,"1,69038E+12","1,69038E+12","lexical","männlich","Deutsch","auditory","5e94aa8e11d9b92eff5f1a16","64c12c9fa57ff5055ceb6e84","64ba4c8d312ce994ea1f9971",7,8016,44,"Critical","yes"
"381",27,28,"","Abitur","with",586158,"1,69038E+12","1,69038E+12","functional","männlich","Deutsch","auditory","5e94aa8e11d9b92eff5f1a16","64c12c9fa57ff5055ceb6e84","64ba4c8d312ce994ea1f9971",7,8691,45,"Critical","yes"
"382",27,28,"","Abitur","without",586158,"1,69038E+12","1,69038E+12","lexical","männlich","Deutsch","auditory","5e94aa8e11d9b92eff5f1a16","64c12c9fa57ff5055ceb6e84","64ba4c8d312ce994ea1f9971",7,7297,46,"Critical","yes"
"384",27,28,"","Abitur","without",586158,"1,69038E+12","1,69038E+12","lexical","männlich","Deutsch","auditory","5e94aa8e11d9b92eff5f1a16","64c12c9fa57ff5055ceb6e84","64ba4c8d312ce994ea1f9971",7,8380,48,"Critical","yes"
"385",27,28,"","Abitur","with",586158,"1,69038E+12","1,69038E+12","lexical","männlich","Deutsch","auditory","5e94aa8e11d9b92eff5f1a16","64c12c9fa57ff5055ceb6e84","64ba4c8d312ce994ea1f9971",7,7893,49,"Critical","yes"
"388",27,28,"","Abitur","without",586158,"1,69038E+12","1,69038E+12","lexical","männlich","Deutsch","auditory","5e94aa8e11d9b92eff5f1a16","64c12c9fa57ff5055ceb6e84","64ba4c8d312ce994ea1f9971",6,11065,52,"Critical","yes"
"391",27,28,"","Abitur","without",586158,"1,69038E+12","1,69038E+12","lexical","männlich","Deutsch","auditory","5e94aa8e11d9b92eff5f1a16","64c12c9fa57ff5055ceb6e84","64ba4c8d312ce994ea1f9971",7,7431,55,"Critical","yes"
"397",28,67,"","Höherer Abschluss","without",700023,"1,69038E+12","1,69038E+12","functional","männlich","Deutsch","auditory","627e7906b82dabdbe672cdd1","64c12c31fdea2888fc821a60","64ba4c8d312ce994ea1f9971",6,11276,5,"Critical","yes"
"398",28,67,"","Höherer Abschluss","without",700023,"1,69038E+12","1,69038E+12","functional","männlich","Deutsch","auditory","627e7906b82dabdbe672cdd1","64c12c31fdea2888fc821a60","64ba4c8d312ce994ea1f9971",7,11098,6,"Critical","yes"
"401",28,67,"","Höherer Abschluss","without",700023,"1,69038E+12","1,69038E+12","functional","männlich","Deutsch","auditory","627e7906b82dabdbe672cdd1","64c12c31fdea2888fc821a60","64ba4c8d312ce994ea1f9971",6,11871,9,"Critical","yes"
"402",28,67,"","Höherer Abschluss","with",700023,"1,69038E+12","1,69038E+12","functional","männlich","Deutsch","auditory","627e7906b82dabdbe672cdd1","64c12c31fdea2888fc821a60","64ba4c8d312ce994ea1f9971",6,11308,10,"Critical","yes"
"404",28,67,"","Höherer Abschluss","without",700023,"1,69038E+12","1,69038E+12","lexical","männlich","Deutsch","auditory","627e7906b82dabdbe672cdd1","64c12c31fdea2888fc821a60","64ba4c8d312ce994ea1f9971",6,8988,12,"Critical","yes"
"406",28,67,"","Höherer Abschluss","with",700023,"1,69038E+12","1,69038E+12","functional","männlich","Deutsch","auditory","627e7906b82dabdbe672cdd1","64c12c31fdea2888fc821a60","64ba4c8d312ce994ea1f9971",6,11692,14,"Critical","yes"
"407",28,67,"","Höherer Abschluss","with",700023,"1,69038E+12","1,69038E+12","functional","männlich","Deutsch","auditory","627e7906b82dabdbe672cdd1","64c12c31fdea2888fc821a60","64ba4c8d312ce994ea1f9971",7,10841,15,"Critical","yes"
"408",28,67,"","Höherer Abschluss","without",700023,"1,69038E+12","1,69038E+12","functional","männlich","Deutsch","auditory","627e7906b82dabdbe672cdd1","64c12c31fdea2888fc821a60","64ba4c8d312ce994ea1f9971",7,9503,16,"Critical","yes"
"409",28,67,"","Höherer Abschluss","without",700023,"1,69038E+12","1,69038E+12","lexical","männlich","Deutsch","auditory","627e7906b82dabdbe672cdd1","64c12c31fdea2888fc821a60","64ba4c8d312ce994ea1f9971",7,9390,17,"Critical","yes"
"410",28,67,"","Höherer Abschluss","with",700023,"1,69038E+12","1,69038E+12","lexical","männlich","Deutsch","auditory","627e7906b82dabdbe672cdd1","64c12c31fdea2888fc821a60","64ba4c8d312ce994ea1f9971",7,9325,18,"Critical","yes"
"413",28,67,"","Höherer Abschluss","without",700023,"1,69038E+12","1,69038E+12","lexical","männlich","Deutsch","auditory","627e7906b82dabdbe672cdd1","64c12c31fdea2888fc821a60","64ba4c8d312ce994ea1f9971",7,11328,21,"Critical","yes"
"414",28,67,"","Höherer Abschluss","with",700023,"1,69038E+12","1,69038E+12","functional","männlich","Deutsch","auditory","627e7906b82dabdbe672cdd1","64c12c31fdea2888fc821a60","64ba4c8d312ce994ea1f9971",7,9799,22,"Critical","yes"
"415",28,67,"","Höherer Abschluss","with",700023,"1,69038E+12","1,69038E+12","lexical","männlich","Deutsch","auditory","627e7906b82dabdbe672cdd1","64c12c31fdea2888fc821a60","64ba4c8d312ce994ea1f9971",7,8985,23,"Critical","yes"
"418",28,67,"","Höherer Abschluss","without",700023,"1,69038E+12","1,69038E+12","lexical","männlich","Deutsch","auditory","627e7906b82dabdbe672cdd1","64c12c31fdea2888fc821a60","64ba4c8d312ce994ea1f9971",7,9768,26,"Critical","yes"
"420",28,67,"","Höherer Abschluss","with",700023,"1,69038E+12","1,69038E+12","lexical","männlich","Deutsch","auditory","627e7906b82dabdbe672cdd1","64c12c31fdea2888fc821a60","64ba4c8d312ce994ea1f9971",7,9375,28,"Critical","yes"
"422",28,67,"","Höherer Abschluss","with",700023,"1,69038E+12","1,69038E+12","lexical","männlich","Deutsch","auditory","627e7906b82dabdbe672cdd1","64c12c31fdea2888fc821a60","64ba4c8d312ce994ea1f9971",7,11071,30,"Critical","yes"
"426",28,67,"","Höherer Abschluss","without",700023,"1,69038E+12","1,69038E+12","functional","männlich","Deutsch","auditory","627e7906b82dabdbe672cdd1","64c12c31fdea2888fc821a60","64ba4c8d312ce994ea1f9971",7,9684,34,"Critical","yes"
"429",28,67,"","Höherer Abschluss","without",700023,"1,69038E+12","1,69038E+12","lexical","männlich","Deutsch","auditory","627e7906b82dabdbe672cdd1","64c12c31fdea2888fc821a60","64ba4c8d312ce994ea1f9971",7,8364,37,"Critical","yes"
"431",28,67,"","Höherer Abschluss","with",700023,"1,69038E+12","1,69038E+12","functional","männlich","Deutsch","auditory","627e7906b82dabdbe672cdd1","64c12c31fdea2888fc821a60","64ba4c8d312ce994ea1f9971",7,8620,39,"Critical","yes"
"432",28,67,"","Höherer Abschluss","without",700023,"1,69038E+12","1,69038E+12","functional","männlich","Deutsch","auditory","627e7906b82dabdbe672cdd1","64c12c31fdea2888fc821a60","64ba4c8d312ce994ea1f9971",7,8920,40,"Critical","yes"
"433",28,67,"","Höherer Abschluss","with",700023,"1,69038E+12","1,69038E+12","functional","männlich","Deutsch","auditory","627e7906b82dabdbe672cdd1","64c12c31fdea2888fc821a60","64ba4c8d312ce994ea1f9971",7,9651,41,"Critical","yes"
"438",28,67,"","Höherer Abschluss","with",700023,"1,69038E+12","1,69038E+12","lexical","männlich","Deutsch","auditory","627e7906b82dabdbe672cdd1","64c12c31fdea2888fc821a60","64ba4c8d312ce994ea1f9971",6,10708,46,"Critical","yes"
"439",28,67,"","Höherer Abschluss","without",700023,"1,69038E+12","1,69038E+12","functional","männlich","Deutsch","auditory","627e7906b82dabdbe672cdd1","64c12c31fdea2888fc821a60","64ba4c8d312ce994ea1f9971",7,9276,47,"Critical","yes"
"440",28,67,"","Höherer Abschluss","without",700023,"1,69038E+12","1,69038E+12","lexical","männlich","Deutsch","auditory","627e7906b82dabdbe672cdd1","64c12c31fdea2888fc821a60","64ba4c8d312ce994ea1f9971",7,9614,48,"Critical","yes"
"441",28,67,"","Höherer Abschluss","with",700023,"1,69038E+12","1,69038E+12","lexical","männlich","Deutsch","auditory","627e7906b82dabdbe672cdd1","64c12c31fdea2888fc821a60","64ba4c8d312ce994ea1f9971",7,11677,49,"Critical","yes"
"442",28,67,"","Höherer Abschluss","with",700023,"1,69038E+12","1,69038E+12","functional","männlich","Deutsch","auditory","627e7906b82dabdbe672cdd1","64c12c31fdea2888fc821a60","64ba4c8d312ce994ea1f9971",7,11633,50,"Critical","yes"
"443",28,67,"","Höherer Abschluss","without",700023,"1,69038E+12","1,69038E+12","lexical","männlich","Deutsch","auditory","627e7906b82dabdbe672cdd1","64c12c31fdea2888fc821a60","64ba4c8d312ce994ea1f9971",6,10334,51,"Critical","yes"
"444",28,67,"","Höherer Abschluss","with",700023,"1,69038E+12","1,69038E+12","lexical","männlich","Deutsch","auditory","627e7906b82dabdbe672cdd1","64c12c31fdea2888fc821a60","64ba4c8d312ce994ea1f9971",7,9058,52,"Critical","yes"
"452",29,26,"","kein Abitur","with",442045,"1,69038E+12","1,69038E+12","lexical","männlich","Deutsch","written","63c658437791ac7be49f06e9","64c12d703d99268b6d58a326","64ba4c8d312ce994ea1f9971",7,5796,4,"Critical","yes"
"453",29,26,"","kein Abitur","without",442045,"1,69038E+12","1,69038E+12","functional","männlich","Deutsch","written","63c658437791ac7be49f06e9","64c12d703d99268b6d58a326","64ba4c8d312ce994ea1f9971",7,5965,5,"Critical","yes"
"454",29,26,"","kein Abitur","with",442045,"1,69038E+12","1,69038E+12","lexical","männlich","Deutsch","written","63c658437791ac7be49f06e9","64c12d703d99268b6d58a326","64ba4c8d312ce994ea1f9971",7,7456,6,"Critical","yes"
"457",29,26,"","kein Abitur","without",442045,"1,69038E+12","1,69038E+12","lexical","männlich","Deutsch","written","63c658437791ac7be49f06e9","64c12d703d99268b6d58a326","64ba4c8d312ce994ea1f9971",7,3691,9,"Critical","yes"
"458",29,26,"","kein Abitur","with",442045,"1,69038E+12","1,69038E+12","lexical","männlich","Deutsch","written","63c658437791ac7be49f06e9","64c12d703d99268b6d58a326","64ba4c8d312ce994ea1f9971",7,16924,10,"Critical","yes"
"460",29,26,"","kein Abitur","without",442045,"1,69038E+12","1,69038E+12","lexical","männlich","Deutsch","written","63c658437791ac7be49f06e9","64c12d703d99268b6d58a326","64ba4c8d312ce994ea1f9971",7,7184,12,"Critical","yes"
"462",29,26,"","kein Abitur","with",442045,"1,69038E+12","1,69038E+12","functional","männlich","Deutsch","written","63c658437791ac7be49f06e9","64c12d703d99268b6d58a326","64ba4c8d312ce994ea1f9971",7,8154,14,"Critical","yes"
"463",29,26,"","kein Abitur","with",442045,"1,69038E+12","1,69038E+12","functional","männlich","Deutsch","written","63c658437791ac7be49f06e9","64c12d703d99268b6d58a326","64ba4c8d312ce994ea1f9971",7,4522,15,"Critical","yes"
"464",29,26,"","kein Abitur","with",442045,"1,69038E+12","1,69038E+12","functional","männlich","Deutsch","written","63c658437791ac7be49f06e9","64c12d703d99268b6d58a326","64ba4c8d312ce994ea1f9971",7,19925,16,"Critical","yes"
"466",29,26,"","kein Abitur","with",442045,"1,69038E+12","1,69038E+12","lexical","männlich","Deutsch","written","63c658437791ac7be49f06e9","64c12d703d99268b6d58a326","64ba4c8d312ce994ea1f9971",7,3983,18,"Critical","yes"
"467",29,26,"","kein Abitur","with",442045,"1,69038E+12","1,69038E+12","lexical","männlich","Deutsch","written","63c658437791ac7be49f06e9","64c12d703d99268b6d58a326","64ba4c8d312ce994ea1f9971",7,2190,19,"Critical","yes"
"470",29,26,"","kein Abitur","with",442045,"1,69038E+12","1,69038E+12","lexical","männlich","Deutsch","written","63c658437791ac7be49f06e9","64c12d703d99268b6d58a326","64ba4c8d312ce994ea1f9971",7,6109,22,"Critical","yes"
"471",29,26,"","kein Abitur","with",442045,"1,69038E+12","1,69038E+12","functional","männlich","Deutsch","written","63c658437791ac7be49f06e9","64c12d703d99268b6d58a326","64ba4c8d312ce994ea1f9971",7,13473,23,"Critical","yes"
"472",29,26,"","kein Abitur","without",442045,"1,69038E+12","1,69038E+12","lexical","männlich","Deutsch","written","63c658437791ac7be49f06e9","64c12d703d99268b6d58a326","64ba4c8d312ce994ea1f9971",7,2876,24,"Critical","yes"
"473",29,26,"","kein Abitur","with",442045,"1,69038E+12","1,69038E+12","functional","männlich","Deutsch","written","63c658437791ac7be49f06e9","64c12d703d99268b6d58a326","64ba4c8d312ce994ea1f9971",7,3383,25,"Critical","yes"
"474",29,26,"","kein Abitur","with",442045,"1,69038E+12","1,69038E+12","functional","männlich","Deutsch","written","63c658437791ac7be49f06e9","64c12d703d99268b6d58a326","64ba4c8d312ce994ea1f9971",7,4755,26,"Critical","yes"
"475",29,26,"","kein Abitur","without",442045,"1,69038E+12","1,69038E+12","functional","männlich","Deutsch","written","63c658437791ac7be49f06e9","64c12d703d99268b6d58a326","64ba4c8d312ce994ea1f9971",7,3017,27,"Critical","yes"
"476",29,26,"","kein Abitur","without",442045,"1,69038E+12","1,69038E+12","functional","männlich","Deutsch","written","63c658437791ac7be49f06e9","64c12d703d99268b6d58a326","64ba4c8d312ce994ea1f9971",7,2154,28,"Critical","yes"
"478",29,26,"","kein Abitur","with",442045,"1,69038E+12","1,69038E+12","lexical","männlich","Deutsch","written","63c658437791ac7be49f06e9","64c12d703d99268b6d58a326","64ba4c8d312ce994ea1f9971",7,2338,30,"Critical","yes"
"481",29,26,"","kein Abitur","without",442045,"1,69038E+12","1,69038E+12","lexical","männlich","Deutsch","written","63c658437791ac7be49f06e9","64c12d703d99268b6d58a326","64ba4c8d312ce994ea1f9971",7,2746,33,"Critical","yes"
"482",29,26,"","kein Abitur","with",442045,"1,69038E+12","1,69038E+12","functional","männlich","Deutsch","written","63c658437791ac7be49f06e9","64c12d703d99268b6d58a326","64ba4c8d312ce994ea1f9971",7,3247,34,"Critical","yes"
"483",29,26,"","kein Abitur","without",442045,"1,69038E+12","1,69038E+12","functional","männlich","Deutsch","written","63c658437791ac7be49f06e9","64c12d703d99268b6d58a326","64ba4c8d312ce994ea1f9971",7,2944,35,"Critical","yes"
"484",29,26,"","kein Abitur","without",442045,"1,69038E+12","1,69038E+12","functional","männlich","Deutsch","written","63c658437791ac7be49f06e9","64c12d703d99268b6d58a326","64ba4c8d312ce994ea1f9971",7,5174,36,"Critical","yes"
"487",29,26,"","kein Abitur","without",442045,"1,69038E+12","1,69038E+12","lexical","männlich","Deutsch","written","63c658437791ac7be49f06e9","64c12d703d99268b6d58a326","64ba4c8d312ce994ea1f9971",7,3148,39,"Critical","yes"
"490",29,26,"","kein Abitur","without",442045,"1,69038E+12","1,69038E+12","functional","männlich","Deutsch","written","63c658437791ac7be49f06e9","64c12d703d99268b6d58a326","64ba4c8d312ce994ea1f9971",7,2749,42,"Critical","yes"
"491",29,26,"","kein Abitur","without",442045,"1,69038E+12","1,69038E+12","lexical","männlich","Deutsch","written","63c658437791ac7be49f06e9","64c12d703d99268b6d58a326","64ba4c8d312ce994ea1f9971",7,5749,43,"Critical","yes"
"496",29,26,"","kein Abitur","without",442045,"1,69038E+12","1,69038E+12","lexical","männlich","Deutsch","written","63c658437791ac7be49f06e9","64c12d703d99268b6d58a326","64ba4c8d312ce994ea1f9971",7,3118,48,"Critical","yes"
"503",29,26,"","kein Abitur","without",442045,"1,69038E+12","1,69038E+12","functional","männlich","Deutsch","written","63c658437791ac7be49f06e9","64c12d703d99268b6d58a326","64ba4c8d312ce994ea1f9971",7,3537,55,"Critical","yes"
"507",30,NA,"","Abitur","with",628289,"1,69038E+12","1,69038E+12","functional","männlich","Deutsch","auditory","63456ccb7a78c1c4821b23ca","64c12cd30f957e9f72f02609","64ba4c8d312ce994ea1f9971",7,8624,3,"Critical","yes"
"508",30,NA,"","Abitur","without",628289,"1,69038E+12","1,69038E+12","functional","männlich","Deutsch","auditory","63456ccb7a78c1c4821b23ca","64c12cd30f957e9f72f02609","64ba4c8d312ce994ea1f9971",7,8552,4,"Critical","yes"
"512",30,NA,"","Abitur","without",628289,"1,69038E+12","1,69038E+12","functional","männlich","Deutsch","auditory","63456ccb7a78c1c4821b23ca","64c12cd30f957e9f72f02609","64ba4c8d312ce994ea1f9971",7,10064,8,"Critical","yes"
"513",30,NA,"","Abitur","without",628289,"1,69038E+12","1,69038E+12","functional","männlich","Deutsch","auditory","63456ccb7a78c1c4821b23ca","64c12cd30f957e9f72f02609","64ba4c8d312ce994ea1f9971",7,7656,9,"Critical","yes"
"516",30,NA,"","Abitur","with",628289,"1,69038E+12","1,69038E+12","lexical","männlich","Deutsch","auditory","63456ccb7a78c1c4821b23ca","64c12cd30f957e9f72f02609","64ba4c8d312ce994ea1f9971",7,6576,12,"Critical","yes"
"517",30,NA,"","Abitur","with",628289,"1,69038E+12","1,69038E+12","lexical","männlich","Deutsch","auditory","63456ccb7a78c1c4821b23ca","64c12cd30f957e9f72f02609","64ba4c8d312ce994ea1f9971",7,6512,13,"Critical","yes"
"518",30,NA,"","Abitur","with",628289,"1,69038E+12","1,69038E+12","functional","männlich","Deutsch","auditory","63456ccb7a78c1c4821b23ca","64c12cd30f957e9f72f02609","64ba4c8d312ce994ea1f9971",7,6792,14,"Critical","yes"
"523",30,NA,"","Abitur","without",628289,"1,69038E+12","1,69038E+12","functional","männlich","Deutsch","auditory","63456ccb7a78c1c4821b23ca","64c12cd30f957e9f72f02609","64ba4c8d312ce994ea1f9971",7,7672,19,"Critical","yes"
"524",30,NA,"","Abitur","with",628289,"1,69038E+12","1,69038E+12","lexical","männlich","Deutsch","auditory","63456ccb7a78c1c4821b23ca","64c12cd30f957e9f72f02609","64ba4c8d312ce994ea1f9971",7,6808,20,"Critical","yes"
"527",30,NA,"","Abitur","without",628289,"1,69038E+12","1,69038E+12","functional","männlich","Deutsch","auditory","63456ccb7a78c1c4821b23ca","64c12cd30f957e9f72f02609","64ba4c8d312ce994ea1f9971",7,7376,23,"Critical","yes"
"528",30,NA,"","Abitur","with",628289,"1,69038E+12","1,69038E+12","lexical","männlich","Deutsch","auditory","63456ccb7a78c1c4821b23ca","64c12cd30f957e9f72f02609","64ba4c8d312ce994ea1f9971",7,8248,24,"Critical","yes"
"531",30,NA,"","Abitur","without",628289,"1,69038E+12","1,69038E+12","lexical","männlich","Deutsch","auditory","63456ccb7a78c1c4821b23ca","64c12cd30f957e9f72f02609","64ba4c8d312ce994ea1f9971",7,7736,27,"Critical","yes"
"532",30,NA,"","Abitur","with",628289,"1,69038E+12","1,69038E+12","lexical","männlich","Deutsch","auditory","63456ccb7a78c1c4821b23ca","64c12cd30f957e9f72f02609","64ba4c8d312ce994ea1f9971",7,7360,28,"Critical","yes"
"533",30,NA,"","Abitur","with",628289,"1,69038E+12","1,69038E+12","functional","männlich","Deutsch","auditory","63456ccb7a78c1c4821b23ca","64c12cd30f957e9f72f02609","64ba4c8d312ce994ea1f9971",7,7608,29,"Critical","yes"
"534",30,NA,"","Abitur","with",628289,"1,69038E+12","1,69038E+12","functional","männlich","Deutsch","auditory","63456ccb7a78c1c4821b23ca","64c12cd30f957e9f72f02609","64ba4c8d312ce994ea1f9971",7,8192,30,"Critical","yes"
"535",30,NA,"","Abitur","without",628289,"1,69038E+12","1,69038E+12","lexical","männlich","Deutsch","auditory","63456ccb7a78c1c4821b23ca","64c12cd30f957e9f72f02609","64ba4c8d312ce994ea1f9971",7,7152,31,"Critical","yes"
"536",30,NA,"","Abitur","without",628289,"1,69038E+12","1,69038E+12","lexical","männlich","Deutsch","auditory","63456ccb7a78c1c4821b23ca","64c12cd30f957e9f72f02609","64ba4c8d312ce994ea1f9971",7,6232,32,"Critical","yes"
"537",30,NA,"","Abitur","without",628289,"1,69038E+12","1,69038E+12","lexical","männlich","Deutsch","auditory","63456ccb7a78c1c4821b23ca","64c12cd30f957e9f72f02609","64ba4c8d312ce994ea1f9971",7,9264,33,"Critical","yes"
"539",30,NA,"","Abitur","with",628289,"1,69038E+12","1,69038E+12","lexical","männlich","Deutsch","auditory","63456ccb7a78c1c4821b23ca","64c12cd30f957e9f72f02609","64ba4c8d312ce994ea1f9971",7,9816,35,"Critical","yes"
"543",30,NA,"","Abitur","without",628289,"1,69038E+12","1,69038E+12","lexical","männlich","Deutsch","auditory","63456ccb7a78c1c4821b23ca","64c12cd30f957e9f72f02609","64ba4c8d312ce994ea1f9971",7,7176,39,"Critical","yes"
"545",30,NA,"","Abitur","with",628289,"1,69038E+12","1,69038E+12","functional","männlich","Deutsch","auditory","63456ccb7a78c1c4821b23ca","64c12cd30f957e9f72f02609","64ba4c8d312ce994ea1f9971",7,7888,41,"Critical","yes"
"546",30,NA,"","Abitur","with",628289,"1,69038E+12","1,69038E+12","lexical","männlich","Deutsch","auditory","63456ccb7a78c1c4821b23ca","64c12cd30f957e9f72f02609","64ba4c8d312ce994ea1f9971",7,7864,42,"Critical","yes"
"548",30,NA,"","Abitur","with",628289,"1,69038E+12","1,69038E+12","functional","männlich","Deutsch","auditory","63456ccb7a78c1c4821b23ca","64c12cd30f957e9f72f02609","64ba4c8d312ce994ea1f9971",7,7936,44,"Critical","yes"
"550",30,NA,"","Abitur","without",628289,"1,69038E+12","1,69038E+12","functional","männlich","Deutsch","auditory","63456ccb7a78c1c4821b23ca","64c12cd30f957e9f72f02609","64ba4c8d312ce994ea1f9971",7,8096,46,"Critical","yes"
"551",30,NA,"","Abitur","without",628289,"1,69038E+12","1,69038E+12","lexical","männlich","Deutsch","auditory","63456ccb7a78c1c4821b23ca","64c12cd30f957e9f72f02609","64ba4c8d312ce994ea1f9971",7,6336,47,"Critical","yes"
"552",30,NA,"","Abitur","without",628289,"1,69038E+12","1,69038E+12","lexical","männlich","Deutsch","auditory","63456ccb7a78c1c4821b23ca","64c12cd30f957e9f72f02609","64ba4c8d312ce994ea1f9971",7,6360,48,"Critical","yes"
"558",30,NA,"","Abitur","with",628289,"1,69038E+12","1,69038E+12","functional","männlich","Deutsch","auditory","63456ccb7a78c1c4821b23ca","64c12cd30f957e9f72f02609","64ba4c8d312ce994ea1f9971",7,6712,54,"Critical","yes"
"560",30,NA,"","Abitur","without",628289,"1,69038E+12","1,69038E+12","functional","männlich","Deutsch","auditory","63456ccb7a78c1c4821b23ca","64c12cd30f957e9f72f02609","64ba4c8d312ce994ea1f9971",7,6712,56,"Critical","yes"
"561",31,73,"Heute spricht man halt so. Das ist schon fast alles erlaubt, auch wenn es der Gegenüber nicht versteht.","Höherer Abschluss","without",638614,"1,69038E+12","1,69038E+12","functional","männlich","Deutsch","written","615572313c3a6169680520dc","64c12cfaded69d4278d7e226","64ba4c8d312ce994ea1f9971",6,28848,1,"Critical","yes"
"564",31,73,"Heute spricht man halt so. Das ist schon fast alles erlaubt, auch wenn es der Gegenüber nicht versteht.","Höherer Abschluss","with",638614,"1,69038E+12","1,69038E+12","lexical","männlich","Deutsch","written","615572313c3a6169680520dc","64c12cfaded69d4278d7e226","64ba4c8d312ce994ea1f9971",6,9317,4,"Critical","yes"
"565",31,73,"Heute spricht man halt so. Das ist schon fast alles erlaubt, auch wenn es der Gegenüber nicht versteht.","Höherer Abschluss","with",638614,"1,69038E+12","1,69038E+12","lexical","männlich","Deutsch","written","615572313c3a6169680520dc","64c12cfaded69d4278d7e226","64ba4c8d312ce994ea1f9971",6,8243,5,"Critical","yes"
"566",31,73,"Heute spricht man halt so. Das ist schon fast alles erlaubt, auch wenn es der Gegenüber nicht versteht.","Höherer Abschluss","without",638614,"1,69038E+12","1,69038E+12","lexical","männlich","Deutsch","written","615572313c3a6169680520dc","64c12cfaded69d4278d7e226","64ba4c8d312ce994ea1f9971",6,8172,6,"Critical","yes"
"568",31,73,"Heute spricht man halt so. Das ist schon fast alles erlaubt, auch wenn es der Gegenüber nicht versteht.","Höherer Abschluss","with",638614,"1,69038E+12","1,69038E+12","functional","männlich","Deutsch","written","615572313c3a6169680520dc","64c12cfaded69d4278d7e226","64ba4c8d312ce994ea1f9971",7,11732,8,"Critical","yes"
"570",31,73,"Heute spricht man halt so. Das ist schon fast alles erlaubt, auch wenn es der Gegenüber nicht versteht.","Höherer Abschluss","with",638614,"1,69038E+12","1,69038E+12","lexical","männlich","Deutsch","written","615572313c3a6169680520dc","64c12cfaded69d4278d7e226","64ba4c8d312ce994ea1f9971",6,6900,10,"Critical","yes"
"571",31,73,"Heute spricht man halt so. Das ist schon fast alles erlaubt, auch wenn es der Gegenüber nicht versteht.","Höherer Abschluss","with",638614,"1,69038E+12","1,69038E+12","lexical","männlich","Deutsch","written","615572313c3a6169680520dc","64c12cfaded69d4278d7e226","64ba4c8d312ce994ea1f9971",6,10692,11,"Critical","yes"
"575",31,73,"Heute spricht man halt so. Das ist schon fast alles erlaubt, auch wenn es der Gegenüber nicht versteht.","Höherer Abschluss","without",638614,"1,69038E+12","1,69038E+12","functional","männlich","Deutsch","written","615572313c3a6169680520dc","64c12cfaded69d4278d7e226","64ba4c8d312ce994ea1f9971",7,3791,15,"Critical","yes"
"576",31,73,"Heute spricht man halt so. Das ist schon fast alles erlaubt, auch wenn es der Gegenüber nicht versteht.","Höherer Abschluss","with",638614,"1,69038E+12","1,69038E+12","functional","männlich","Deutsch","written","615572313c3a6169680520dc","64c12cfaded69d4278d7e226","64ba4c8d312ce994ea1f9971",7,5279,16,"Critical","yes"
"579",31,73,"Heute spricht man halt so. Das ist schon fast alles erlaubt, auch wenn es der Gegenüber nicht versteht.","Höherer Abschluss","with",638614,"1,69038E+12","1,69038E+12","functional","männlich","Deutsch","written","615572313c3a6169680520dc","64c12cfaded69d4278d7e226","64ba4c8d312ce994ea1f9971",6,7651,19,"Critical","yes"
"580",31,73,"Heute spricht man halt so. Das ist schon fast alles erlaubt, auch wenn es der Gegenüber nicht versteht.","Höherer Abschluss","with",638614,"1,69038E+12","1,69038E+12","functional","männlich","Deutsch","written","615572313c3a6169680520dc","64c12cfaded69d4278d7e226","64ba4c8d312ce994ea1f9971",7,7429,20,"Critical","yes"
"581",31,73,"Heute spricht man halt so. Das ist schon fast alles erlaubt, auch wenn es der Gegenüber nicht versteht.","Höherer Abschluss","with",638614,"1,69038E+12","1,69038E+12","functional","männlich","Deutsch","written","615572313c3a6169680520dc","64c12cfaded69d4278d7e226","64ba4c8d312ce994ea1f9971",7,7062,21,"Critical","yes"
"584",31,73,"Heute spricht man halt so. Das ist schon fast alles erlaubt, auch wenn es der Gegenüber nicht versteht.","Höherer Abschluss","with",638614,"1,69038E+12","1,69038E+12","functional","männlich","Deutsch","written","615572313c3a6169680520dc","64c12cfaded69d4278d7e226","64ba4c8d312ce994ea1f9971",7,7824,24,"Critical","yes"
"586",31,73,"Heute spricht man halt so. Das ist schon fast alles erlaubt, auch wenn es der Gegenüber nicht versteht.","Höherer Abschluss","without",638614,"1,69038E+12","1,69038E+12","functional","männlich","Deutsch","written","615572313c3a6169680520dc","64c12cfaded69d4278d7e226","64ba4c8d312ce994ea1f9971",7,5150,26,"Critical","yes"
"587",31,73,"Heute spricht man halt so. Das ist schon fast alles erlaubt, auch wenn es der Gegenüber nicht versteht.","Höherer Abschluss","without",638614,"1,69038E+12","1,69038E+12","functional","männlich","Deutsch","written","615572313c3a6169680520dc","64c12cfaded69d4278d7e226","64ba4c8d312ce994ea1f9971",7,5223,27,"Critical","yes"
"590",31,73,"Heute spricht man halt so. Das ist schon fast alles erlaubt, auch wenn es der Gegenüber nicht versteht.","Höherer Abschluss","with",638614,"1,69038E+12","1,69038E+12","lexical","männlich","Deutsch","written","615572313c3a6169680520dc","64c12cfaded69d4278d7e226","64ba4c8d312ce994ea1f9971",7,7617,30,"Critical","yes"
"591",31,73,"Heute spricht man halt so. Das ist schon fast alles erlaubt, auch wenn es der Gegenüber nicht versteht.","Höherer Abschluss","with",638614,"1,69038E+12","1,69038E+12","lexical","männlich","Deutsch","written","615572313c3a6169680520dc","64c12cfaded69d4278d7e226","64ba4c8d312ce994ea1f9971",6,4628,31,"Critical","yes"
"596",31,73,"Heute spricht man halt so. Das ist schon fast alles erlaubt, auch wenn es der Gegenüber nicht versteht.","Höherer Abschluss","with",638614,"1,69038E+12","1,69038E+12","lexical","männlich","Deutsch","written","615572313c3a6169680520dc","64c12cfaded69d4278d7e226","64ba4c8d312ce994ea1f9971",7,6154,36,"Critical","yes"
"598",31,73,"Heute spricht man halt so. Das ist schon fast alles erlaubt, auch wenn es der Gegenüber nicht versteht.","Höherer Abschluss","without",638614,"1,69038E+12","1,69038E+12","functional","männlich","Deutsch","written","615572313c3a6169680520dc","64c12cfaded69d4278d7e226","64ba4c8d312ce994ea1f9971",7,4645,38,"Critical","yes"
"602",31,73,"Heute spricht man halt so. Das ist schon fast alles erlaubt, auch wenn es der Gegenüber nicht versteht.","Höherer Abschluss","without",638614,"1,69038E+12","1,69038E+12","functional","männlich","Deutsch","written","615572313c3a6169680520dc","64c12cfaded69d4278d7e226","64ba4c8d312ce994ea1f9971",7,5002,42,"Critical","yes"
"604",31,73,"Heute spricht man halt so. Das ist schon fast alles erlaubt, auch wenn es der Gegenüber nicht versteht.","Höherer Abschluss","without",638614,"1,69038E+12","1,69038E+12","lexical","männlich","Deutsch","written","615572313c3a6169680520dc","64c12cfaded69d4278d7e226","64ba4c8d312ce994ea1f9971",7,9392,44,"Critical","yes"
"605",31,73,"Heute spricht man halt so. Das ist schon fast alles erlaubt, auch wenn es der Gegenüber nicht versteht.","Höherer Abschluss","without",638614,"1,69038E+12","1,69038E+12","lexical","männlich","Deutsch","written","615572313c3a6169680520dc","64c12cfaded69d4278d7e226","64ba4c8d312ce994ea1f9971",7,7930,45,"Critical","yes"
"606",31,73,"Heute spricht man halt so. Das ist schon fast alles erlaubt, auch wenn es der Gegenüber nicht versteht.","Höherer Abschluss","without",638614,"1,69038E+12","1,69038E+12","lexical","männlich","Deutsch","written","615572313c3a6169680520dc","64c12cfaded69d4278d7e226","64ba4c8d312ce994ea1f9971",7,4327,46,"Critical","yes"
"607",31,73,"Heute spricht man halt so. Das ist schon fast alles erlaubt, auch wenn es der Gegenüber nicht versteht.","Höherer Abschluss","without",638614,"1,69038E+12","1,69038E+12","lexical","männlich","Deutsch","written","615572313c3a6169680520dc","64c12cfaded69d4278d7e226","64ba4c8d312ce994ea1f9971",7,4138,47,"Critical","yes"
"608",31,73,"Heute spricht man halt so. Das ist schon fast alles erlaubt, auch wenn es der Gegenüber nicht versteht.","Höherer Abschluss","with",638614,"1,69038E+12","1,69038E+12","functional","männlich","Deutsch","written","615572313c3a6169680520dc","64c12cfaded69d4278d7e226","64ba4c8d312ce994ea1f9971",7,3612,48,"Critical","yes"
"609",31,73,"Heute spricht man halt so. Das ist schon fast alles erlaubt, auch wenn es der Gegenüber nicht versteht.","Höherer Abschluss","without",638614,"1,69038E+12","1,69038E+12","lexical","männlich","Deutsch","written","615572313c3a6169680520dc","64c12cfaded69d4278d7e226","64ba4c8d312ce994ea1f9971",7,5638,49,"Critical","yes"
"612",31,73,"Heute spricht man halt so. Das ist schon fast alles erlaubt, auch wenn es der Gegenüber nicht versteht.","Höherer Abschluss","without",638614,"1,69038E+12","1,69038E+12","lexical","männlich","Deutsch","written","615572313c3a6169680520dc","64c12cfaded69d4278d7e226","64ba4c8d312ce994ea1f9971",7,4207,52,"Critical","yes"
"615",31,73,"Heute spricht man halt so. Das ist schon fast alles erlaubt, auch wenn es der Gegenüber nicht versteht.","Höherer Abschluss","without",638614,"1,69038E+12","1,69038E+12","functional","männlich","Deutsch","written","615572313c3a6169680520dc","64c12cfaded69d4278d7e226","64ba4c8d312ce994ea1f9971",7,3730,55,"Critical","yes"
"619",32,52,"","kein Abitur","with",884171,"1,69038E+12","1,69038E+12","functional","männlich","deutsch","written","5f17d20539078c0800cb4e7b","64c12c5eacaad4f53d742d11","64ba4c8d312ce994ea1f9971",6,17072,3,"Critical","yes"
"622",32,52,"","kein Abitur","with",884171,"1,69038E+12","1,69038E+12","lexical","männlich","deutsch","written","5f17d20539078c0800cb4e7b","64c12c5eacaad4f53d742d11","64ba4c8d312ce994ea1f9971",5,8446,6,"Critical","yes"
"623",32,52,"","kein Abitur","with",884171,"1,69038E+12","1,69038E+12","functional","männlich","deutsch","written","5f17d20539078c0800cb4e7b","64c12c5eacaad4f53d742d11","64ba4c8d312ce994ea1f9971",6,10208,7,"Critical","yes"
"625",32,52,"","kein Abitur","without",884171,"1,69038E+12","1,69038E+12","functional","männlich","deutsch","written","5f17d20539078c0800cb4e7b","64c12c5eacaad4f53d742d11","64ba4c8d312ce994ea1f9971",5,5820,9,"Critical","yes"
"628",32,52,"","kein Abitur","with",884171,"1,69038E+12","1,69038E+12","functional","männlich","deutsch","written","5f17d20539078c0800cb4e7b","64c12c5eacaad4f53d742d11","64ba4c8d312ce994ea1f9971",5,6787,12,"Critical","yes"
"629",32,52,"","kein Abitur","without",884171,"1,69038E+12","1,69038E+12","functional","männlich","deutsch","written","5f17d20539078c0800cb4e7b","64c12c5eacaad4f53d742d11","64ba4c8d312ce994ea1f9971",5,4755,13,"Critical","yes"
"631",32,52,"","kein Abitur","with",884171,"1,69038E+12","1,69038E+12","functional","männlich","deutsch","written","5f17d20539078c0800cb4e7b","64c12c5eacaad4f53d742d11","64ba4c8d312ce994ea1f9971",5,88866,15,"Critical","yes"
"632",32,52,"","kein Abitur","without",884171,"1,69038E+12","1,69038E+12","lexical","männlich","deutsch","written","5f17d20539078c0800cb4e7b","64c12c5eacaad4f53d742d11","64ba4c8d312ce994ea1f9971",5,4635,16,"Critical","yes"
"633",32,52,"","kein Abitur","with",884171,"1,69038E+12","1,69038E+12","lexical","männlich","deutsch","written","5f17d20539078c0800cb4e7b","64c12c5eacaad4f53d742d11","64ba4c8d312ce994ea1f9971",5,5183,17,"Critical","yes"
"635",32,52,"","kein Abitur","without",884171,"1,69038E+12","1,69038E+12","functional","männlich","deutsch","written","5f17d20539078c0800cb4e7b","64c12c5eacaad4f53d742d11","64ba4c8d312ce994ea1f9971",4,7508,19,"Critical","yes"
"637",32,52,"","kein Abitur","with",884171,"1,69038E+12","1,69038E+12","functional","männlich","deutsch","written","5f17d20539078c0800cb4e7b","64c12c5eacaad4f53d742d11","64ba4c8d312ce994ea1f9971",4,7215,21,"Critical","yes"
"638",32,52,"","kein Abitur","without",884171,"1,69038E+12","1,69038E+12","lexical","männlich","deutsch","written","5f17d20539078c0800cb4e7b","64c12c5eacaad4f53d742d11","64ba4c8d312ce994ea1f9971",4,8460,22,"Critical","yes"
"639",32,52,"","kein Abitur","with",884171,"1,69038E+12","1,69038E+12","lexical","männlich","deutsch","written","5f17d20539078c0800cb4e7b","64c12c5eacaad4f53d742d11","64ba4c8d312ce994ea1f9971",5,13876,23,"Critical","yes"
"642",32,52,"","kein Abitur","without",884171,"1,69038E+12","1,69038E+12","functional","männlich","deutsch","written","5f17d20539078c0800cb4e7b","64c12c5eacaad4f53d742d11","64ba4c8d312ce994ea1f9971",5,8573,26,"Critical","yes"
"645",32,52,"","kein Abitur","with",884171,"1,69038E+12","1,69038E+12","functional","männlich","deutsch","written","5f17d20539078c0800cb4e7b","64c12c5eacaad4f53d742d11","64ba4c8d312ce994ea1f9971",4,7328,29,"Critical","yes"
"646",32,52,"","kein Abitur","without",884171,"1,69038E+12","1,69038E+12","functional","männlich","deutsch","written","5f17d20539078c0800cb4e7b","64c12c5eacaad4f53d742d11","64ba4c8d312ce994ea1f9971",5,7644,30,"Critical","yes"
"647",32,52,"","kein Abitur","without",884171,"1,69038E+12","1,69038E+12","lexical","männlich","deutsch","written","5f17d20539078c0800cb4e7b","64c12c5eacaad4f53d742d11","64ba4c8d312ce994ea1f9971",4,5265,31,"Critical","yes"
"648",32,52,"","kein Abitur","without",884171,"1,69038E+12","1,69038E+12","lexical","männlich","deutsch","written","5f17d20539078c0800cb4e7b","64c12c5eacaad4f53d742d11","64ba4c8d312ce994ea1f9971",5,6502,32,"Critical","yes"
"649",32,52,"","kein Abitur","with",884171,"1,69038E+12","1,69038E+12","functional","männlich","deutsch","written","5f17d20539078c0800cb4e7b","64c12c5eacaad4f53d742d11","64ba4c8d312ce994ea1f9971",4,9692,33,"Critical","yes"
"650",32,52,"","kein Abitur","with",884171,"1,69038E+12","1,69038E+12","lexical","männlich","deutsch","written","5f17d20539078c0800cb4e7b","64c12c5eacaad4f53d742d11","64ba4c8d312ce994ea1f9971",4,13260,34,"Critical","yes"
"651",32,52,"","kein Abitur","with",884171,"1,69038E+12","1,69038E+12","lexical","männlich","deutsch","written","5f17d20539078c0800cb4e7b","64c12c5eacaad4f53d742d11","64ba4c8d312ce994ea1f9971",5,8768,35,"Critical","yes"
"652",32,52,"","kein Abitur","with",884171,"1,69038E+12","1,69038E+12","lexical","männlich","deutsch","written","5f17d20539078c0800cb4e7b","64c12c5eacaad4f53d742d11","64ba4c8d312ce994ea1f9971",4,4492,36,"Critical","yes"
"654",32,52,"","kein Abitur","without",884171,"1,69038E+12","1,69038E+12","lexical","männlich","deutsch","written","5f17d20539078c0800cb4e7b","64c12c5eacaad4f53d742d11","64ba4c8d312ce994ea1f9971",4,4756,38,"Critical","yes"
"659",32,52,"","kein Abitur","without",884171,"1,69038E+12","1,69038E+12","lexical","männlich","deutsch","written","5f17d20539078c0800cb4e7b","64c12c5eacaad4f53d742d11","64ba4c8d312ce994ea1f9971",4,4478,43,"Critical","yes"
"660",32,52,"","kein Abitur","without",884171,"1,69038E+12","1,69038E+12","functional","männlich","deutsch","written","5f17d20539078c0800cb4e7b","64c12c5eacaad4f53d742d11","64ba4c8d312ce994ea1f9971",5,4808,44,"Critical","yes"
"661",32,52,"","kein Abitur","with",884171,"1,69038E+12","1,69038E+12","lexical","männlich","deutsch","written","5f17d20539078c0800cb4e7b","64c12c5eacaad4f53d742d11","64ba4c8d312ce994ea1f9971",4,5888,45,"Critical","yes"
"665",32,52,"","kein Abitur","without",884171,"1,69038E+12","1,69038E+12","functional","männlich","deutsch","written","5f17d20539078c0800cb4e7b","64c12c5eacaad4f53d742d11","64ba4c8d312ce994ea1f9971",5,7448,49,"Critical","yes"
"670",32,52,"","kein Abitur","without",884171,"1,69038E+12","1,69038E+12","lexical","männlich","deutsch","written","5f17d20539078c0800cb4e7b","64c12c5eacaad4f53d742d11","64ba4c8d312ce994ea1f9971",4,3722,54,"Critical","yes"
"673",33,35,"","Höherer Abschluss","without",719581,"1,69038E+12","1,69038E+12","functional","männlich","deustch","auditory","6310a80b8a7b3a5e4596debc","64c12d2c59e00ef2fc6c7408","64ba4c8d312ce994ea1f9971",6,27640,1,"Critical","yes"
"675",33,35,"","Höherer Abschluss","without",719581,"1,69038E+12","1,69038E+12","functional","männlich","deustch","auditory","6310a80b8a7b3a5e4596debc","64c12d2c59e00ef2fc6c7408","64ba4c8d312ce994ea1f9971",6,14408,3,"Critical","yes"
"676",33,35,"","Höherer Abschluss","with",719581,"1,69038E+12","1,69038E+12","lexical","männlich","deustch","auditory","6310a80b8a7b3a5e4596debc","64c12d2c59e00ef2fc6c7408","64ba4c8d312ce994ea1f9971",6,8816,4,"Critical","yes"
"678",33,35,"","Höherer Abschluss","with",719581,"1,69038E+12","1,69038E+12","functional","männlich","deustch","auditory","6310a80b8a7b3a5e4596debc","64c12d2c59e00ef2fc6c7408","64ba4c8d312ce994ea1f9971",6,8496,6,"Critical","yes"
"680",33,35,"","Höherer Abschluss","without",719581,"1,69038E+12","1,69038E+12","functional","männlich","deustch","auditory","6310a80b8a7b3a5e4596debc","64c12d2c59e00ef2fc6c7408","64ba4c8d312ce994ea1f9971",6,11384,8,"Critical","yes"
"682",33,35,"","Höherer Abschluss","with",719581,"1,69038E+12","1,69038E+12","functional","männlich","deustch","auditory","6310a80b8a7b3a5e4596debc","64c12d2c59e00ef2fc6c7408","64ba4c8d312ce994ea1f9971",6,9055,10,"Critical","yes"
"685",33,35,"","Höherer Abschluss","with",719581,"1,69038E+12","1,69038E+12","functional","männlich","deustch","auditory","6310a80b8a7b3a5e4596debc","64c12d2c59e00ef2fc6c7408","64ba4c8d312ce994ea1f9971",6,9056,13,"Critical","yes"
"686",33,35,"","Höherer Abschluss","without",719581,"1,69038E+12","1,69038E+12","functional","männlich","deustch","auditory","6310a80b8a7b3a5e4596debc","64c12d2c59e00ef2fc6c7408","64ba4c8d312ce994ea1f9971",6,8176,14,"Critical","yes"
"688",33,35,"","Höherer Abschluss","without",719581,"1,69038E+12","1,69038E+12","lexical","männlich","deustch","auditory","6310a80b8a7b3a5e4596debc","64c12d2c59e00ef2fc6c7408","64ba4c8d312ce994ea1f9971",6,13296,16,"Critical","yes"
"690",33,35,"","Höherer Abschluss","without",719581,"1,69038E+12","1,69038E+12","lexical","männlich","deustch","auditory","6310a80b8a7b3a5e4596debc","64c12d2c59e00ef2fc6c7408","64ba4c8d312ce994ea1f9971",7,12248,18,"Critical","yes"
"691",33,35,"","Höherer Abschluss","with",719581,"1,69038E+12","1,69038E+12","functional","männlich","deustch","auditory","6310a80b8a7b3a5e4596debc","64c12d2c59e00ef2fc6c7408","64ba4c8d312ce994ea1f9971",6,13175,19,"Critical","yes"
"692",33,35,"","Höherer Abschluss","without",719581,"1,69038E+12","1,69038E+12","functional","männlich","deustch","auditory","6310a80b8a7b3a5e4596debc","64c12d2c59e00ef2fc6c7408","64ba4c8d312ce994ea1f9971",6,9048,20,"Critical","yes"
"693",33,35,"","Höherer Abschluss","without",719581,"1,69038E+12","1,69038E+12","lexical","männlich","deustch","auditory","6310a80b8a7b3a5e4596debc","64c12d2c59e00ef2fc6c7408","64ba4c8d312ce994ea1f9971",6,7265,21,"Critical","yes"
"695",33,35,"","Höherer Abschluss","with",719581,"1,69038E+12","1,69038E+12","lexical","männlich","deustch","auditory","6310a80b8a7b3a5e4596debc","64c12d2c59e00ef2fc6c7408","64ba4c8d312ce994ea1f9971",6,7768,23,"Critical","yes"
"698",33,35,"","Höherer Abschluss","with",719581,"1,69038E+12","1,69038E+12","lexical","männlich","deustch","auditory","6310a80b8a7b3a5e4596debc","64c12d2c59e00ef2fc6c7408","64ba4c8d312ce994ea1f9971",6,8416,26,"Critical","yes"
"700",33,35,"","Höherer Abschluss","without",719581,"1,69038E+12","1,69038E+12","functional","männlich","deustch","auditory","6310a80b8a7b3a5e4596debc","64c12d2c59e00ef2fc6c7408","64ba4c8d312ce994ea1f9971",6,7544,28,"Critical","yes"
"702",33,35,"","Höherer Abschluss","without",719581,"1,69038E+12","1,69038E+12","functional","männlich","deustch","auditory","6310a80b8a7b3a5e4596debc","64c12d2c59e00ef2fc6c7408","64ba4c8d312ce994ea1f9971",6,17599,30,"Critical","yes"
"703",33,35,"","Höherer Abschluss","with",719581,"1,69038E+12","1,69038E+12","lexical","männlich","deustch","auditory","6310a80b8a7b3a5e4596debc","64c12d2c59e00ef2fc6c7408","64ba4c8d312ce994ea1f9971",6,7673,31,"Critical","yes"
"708",33,35,"","Höherer Abschluss","with",719581,"1,69038E+12","1,69038E+12","functional","männlich","deustch","auditory","6310a80b8a7b3a5e4596debc","64c12d2c59e00ef2fc6c7408","64ba4c8d312ce994ea1f9971",6,8833,36,"Critical","yes"
"710",33,35,"","Höherer Abschluss","with",719581,"1,69038E+12","1,69038E+12","functional","männlich","deustch","auditory","6310a80b8a7b3a5e4596debc","64c12d2c59e00ef2fc6c7408","64ba4c8d312ce994ea1f9971",6,48080,38,"Critical","yes"
"712",33,35,"","Höherer Abschluss","without",719581,"1,69038E+12","1,69038E+12","lexical","männlich","deustch","auditory","6310a80b8a7b3a5e4596debc","64c12d2c59e00ef2fc6c7408","64ba4c8d312ce994ea1f9971",6,6361,40,"Critical","yes"
"713",33,35,"","Höherer Abschluss","with",719581,"1,69038E+12","1,69038E+12","lexical","männlich","deustch","auditory","6310a80b8a7b3a5e4596debc","64c12d2c59e00ef2fc6c7408","64ba4c8d312ce994ea1f9971",6,6551,41,"Critical","yes"
"718",33,35,"","Höherer Abschluss","without",719581,"1,69038E+12","1,69038E+12","lexical","männlich","deustch","auditory","6310a80b8a7b3a5e4596debc","64c12d2c59e00ef2fc6c7408","64ba4c8d312ce994ea1f9971",6,7111,46,"Critical","yes"
"719",33,35,"","Höherer Abschluss","with",719581,"1,69038E+12","1,69038E+12","functional","männlich","deustch","auditory","6310a80b8a7b3a5e4596debc","64c12d2c59e00ef2fc6c7408","64ba4c8d312ce994ea1f9971",6,7408,47,"Critical","yes"
"720",33,35,"","Höherer Abschluss","with",719581,"1,69038E+12","1,69038E+12","lexical","männlich","deustch","auditory","6310a80b8a7b3a5e4596debc","64c12d2c59e00ef2fc6c7408","64ba4c8d312ce994ea1f9971",6,7583,48,"Critical","yes"
"722",33,35,"","Höherer Abschluss","without",719581,"1,69038E+12","1,69038E+12","lexical","männlich","deustch","auditory","6310a80b8a7b3a5e4596debc","64c12d2c59e00ef2fc6c7408","64ba4c8d312ce994ea1f9971",6,7624,50,"Critical","yes"
"725",33,35,"","Höherer Abschluss","without",719581,"1,69038E+12","1,69038E+12","lexical","männlich","deustch","auditory","6310a80b8a7b3a5e4596debc","64c12d2c59e00ef2fc6c7408","64ba4c8d312ce994ea1f9971",6,6856,53,"Critical","yes"
"726",33,35,"","Höherer Abschluss","with",719581,"1,69038E+12","1,69038E+12","lexical","männlich","deustch","auditory","6310a80b8a7b3a5e4596debc","64c12d2c59e00ef2fc6c7408","64ba4c8d312ce994ea1f9971",6,6440,54,"Critical","yes"
"729",34,26,"","Abitur","with",498596,"1,69038E+12","1,69038E+12","lexical","männlich","Deutsch","auditory","60d10503b38976552a1b35da","64c12e7e4cb3ac17fc255028","64ba4c8d312ce994ea1f9971",7,10225,1,"Critical","yes"
"732",34,26,"","Abitur","without",498596,"1,69038E+12","1,69038E+12","lexical","männlich","Deutsch","auditory","60d10503b38976552a1b35da","64c12e7e4cb3ac17fc255028","64ba4c8d312ce994ea1f9971",5,12474,4,"Critical","yes"
"733",34,26,"","Abitur","with",498596,"1,69038E+12","1,69038E+12","lexical","männlich","Deutsch","auditory","60d10503b38976552a1b35da","64c12e7e4cb3ac17fc255028","64ba4c8d312ce994ea1f9971",7,7767,5,"Critical","yes"
"735",34,26,"","Abitur","with",498596,"1,69038E+12","1,69038E+12","functional","männlich","Deutsch","auditory","60d10503b38976552a1b35da","64c12e7e4cb3ac17fc255028","64ba4c8d312ce994ea1f9971",7,8794,7,"Critical","yes"
"738",34,26,"","Abitur","with",498596,"1,69038E+12","1,69038E+12","lexical","männlich","Deutsch","auditory","60d10503b38976552a1b35da","64c12e7e4cb3ac17fc255028","64ba4c8d312ce994ea1f9971",7,8075,10,"Critical","yes"
"739",34,26,"","Abitur","with",498596,"1,69038E+12","1,69038E+12","functional","männlich","Deutsch","auditory","60d10503b38976552a1b35da","64c12e7e4cb3ac17fc255028","64ba4c8d312ce994ea1f9971",7,6940,11,"Critical","yes"
"740",34,26,"","Abitur","without",498596,"1,69038E+12","1,69038E+12","lexical","männlich","Deutsch","auditory","60d10503b38976552a1b35da","64c12e7e4cb3ac17fc255028","64ba4c8d312ce994ea1f9971",7,6475,12,"Critical","yes"
"742",34,26,"","Abitur","with",498596,"1,69038E+12","1,69038E+12","lexical","männlich","Deutsch","auditory","60d10503b38976552a1b35da","64c12e7e4cb3ac17fc255028","64ba4c8d312ce994ea1f9971",7,7177,14,"Critical","yes"
"744",34,26,"","Abitur","with",498596,"1,69038E+12","1,69038E+12","functional","männlich","Deutsch","auditory","60d10503b38976552a1b35da","64c12e7e4cb3ac17fc255028","64ba4c8d312ce994ea1f9971",7,7684,16,"Critical","yes"
"749",34,26,"","Abitur","with",498596,"1,69038E+12","1,69038E+12","functional","männlich","Deutsch","auditory","60d10503b38976552a1b35da","64c12e7e4cb3ac17fc255028","64ba4c8d312ce994ea1f9971",7,7620,21,"Critical","yes"
"754",34,26,"","Abitur","without",498596,"1,69038E+12","1,69038E+12","lexical","männlich","Deutsch","auditory","60d10503b38976552a1b35da","64c12e7e4cb3ac17fc255028","64ba4c8d312ce994ea1f9971",6,6955,26,"Critical","yes"
"756",34,26,"","Abitur","with",498596,"1,69038E+12","1,69038E+12","functional","männlich","Deutsch","auditory","60d10503b38976552a1b35da","64c12e7e4cb3ac17fc255028","64ba4c8d312ce994ea1f9971",7,7403,28,"Critical","yes"
"757",34,26,"","Abitur","without",498596,"1,69038E+12","1,69038E+12","functional","männlich","Deutsch","auditory","60d10503b38976552a1b35da","64c12e7e4cb3ac17fc255028","64ba4c8d312ce994ea1f9971",6,6388,29,"Critical","yes"
"758",34,26,"","Abitur","without",498596,"1,69038E+12","1,69038E+12","functional","männlich","Deutsch","auditory","60d10503b38976552a1b35da","64c12e7e4cb3ac17fc255028","64ba4c8d312ce994ea1f9971",6,7459,30,"Critical","yes"
"760",34,26,"","Abitur","with",498596,"1,69038E+12","1,69038E+12","lexical","männlich","Deutsch","auditory","60d10503b38976552a1b35da","64c12e7e4cb3ac17fc255028","64ba4c8d312ce994ea1f9971",7,7068,32,"Critical","yes"
"761",34,26,"","Abitur","without",498596,"1,69038E+12","1,69038E+12","lexical","männlich","Deutsch","auditory","60d10503b38976552a1b35da","64c12e7e4cb3ac17fc255028","64ba4c8d312ce994ea1f9971",7,6521,33,"Critical","yes"
"765",34,26,"","Abitur","with",498596,"1,69038E+12","1,69038E+12","functional","männlich","Deutsch","auditory","60d10503b38976552a1b35da","64c12e7e4cb3ac17fc255028","64ba4c8d312ce994ea1f9971",7,7807,37,"Critical","yes"
"767",34,26,"","Abitur","without",498596,"1,69038E+12","1,69038E+12","functional","männlich","Deutsch","auditory","60d10503b38976552a1b35da","64c12e7e4cb3ac17fc255028","64ba4c8d312ce994ea1f9971",7,6990,39,"Critical","yes"
"768",34,26,"","Abitur","without",498596,"1,69038E+12","1,69038E+12","functional","männlich","Deutsch","auditory","60d10503b38976552a1b35da","64c12e7e4cb3ac17fc255028","64ba4c8d312ce994ea1f9971",6,6243,40,"Critical","yes"
"769",34,26,"","Abitur","without",498596,"1,69038E+12","1,69038E+12","functional","männlich","Deutsch","auditory","60d10503b38976552a1b35da","64c12e7e4cb3ac17fc255028","64ba4c8d312ce994ea1f9971",7,6290,41,"Critical","yes"
"771",34,26,"","Abitur","without",498596,"1,69038E+12","1,69038E+12","functional","männlich","Deutsch","auditory","60d10503b38976552a1b35da","64c12e7e4cb3ac17fc255028","64ba4c8d312ce994ea1f9971",7,6546,43,"Critical","yes"
"772",34,26,"","Abitur","without",498596,"1,69038E+12","1,69038E+12","functional","männlich","Deutsch","auditory","60d10503b38976552a1b35da","64c12e7e4cb3ac17fc255028","64ba4c8d312ce994ea1f9971",7,5800,44,"Critical","yes"
"774",34,26,"","Abitur","with",498596,"1,69038E+12","1,69038E+12","functional","männlich","Deutsch","auditory","60d10503b38976552a1b35da","64c12e7e4cb3ac17fc255028","64ba4c8d312ce994ea1f9971",7,6398,46,"Critical","yes"
"777",34,26,"","Abitur","with",498596,"1,69038E+12","1,69038E+12","lexical","männlich","Deutsch","auditory","60d10503b38976552a1b35da","64c12e7e4cb3ac17fc255028","64ba4c8d312ce994ea1f9971",7,7530,49,"Critical","yes"
"778",34,26,"","Abitur","without",498596,"1,69038E+12","1,69038E+12","lexical","männlich","Deutsch","auditory","60d10503b38976552a1b35da","64c12e7e4cb3ac17fc255028","64ba4c8d312ce994ea1f9971",6,7661,50,"Critical","yes"
"781",34,26,"","Abitur","with",498596,"1,69038E+12","1,69038E+12","lexical","männlich","Deutsch","auditory","60d10503b38976552a1b35da","64c12e7e4cb3ac17fc255028","64ba4c8d312ce994ea1f9971",7,5471,53,"Critical","yes"
"782",34,26,"","Abitur","without",498596,"1,69038E+12","1,69038E+12","lexical","männlich","Deutsch","auditory","60d10503b38976552a1b35da","64c12e7e4cb3ac17fc255028","64ba4c8d312ce994ea1f9971",7,7133,54,"Critical","yes"
"783",34,26,"","Abitur","without",498596,"1,69038E+12","1,69038E+12","lexical","männlich","Deutsch","auditory","60d10503b38976552a1b35da","64c12e7e4cb3ac17fc255028","64ba4c8d312ce994ea1f9971",7,5602,55,"Critical","yes"
"787",35,60,"","Höherer Abschluss","without",500172,"1,69038E+12","1,69038E+12","functional","weiblich","Deutsch","written","5f8051b402daee04b8108440","64c12e6f86bc0ea1e5011030","64ba4c8d312ce994ea1f9971",7,7177,3,"Critical","yes"
"789",35,60,"","Höherer Abschluss","with",500172,"1,69038E+12","1,69038E+12","lexical","weiblich","Deutsch","written","5f8051b402daee04b8108440","64c12e6f86bc0ea1e5011030","64ba4c8d312ce994ea1f9971",7,4479,5,"Critical","yes"
"791",35,60,"","Höherer Abschluss","without",500172,"1,69038E+12","1,69038E+12","lexical","weiblich","Deutsch","written","5f8051b402daee04b8108440","64c12e6f86bc0ea1e5011030","64ba4c8d312ce994ea1f9971",7,5625,7,"Critical","yes"
"793",35,60,"","Höherer Abschluss","with",500172,"1,69038E+12","1,69038E+12","functional","weiblich","Deutsch","written","5f8051b402daee04b8108440","64c12e6f86bc0ea1e5011030","64ba4c8d312ce994ea1f9971",7,3540,9,"Critical","yes"
"799",35,60,"","Höherer Abschluss","with",500172,"1,69038E+12","1,69038E+12","lexical","weiblich","Deutsch","written","5f8051b402daee04b8108440","64c12e6f86bc0ea1e5011030","64ba4c8d312ce994ea1f9971",7,3713,15,"Critical","yes"
"800",35,60,"","Höherer Abschluss","without",500172,"1,69038E+12","1,69038E+12","lexical","weiblich","Deutsch","written","5f8051b402daee04b8108440","64c12e6f86bc0ea1e5011030","64ba4c8d312ce994ea1f9971",7,5511,16,"Critical","yes"
"801",35,60,"","Höherer Abschluss","with",500172,"1,69038E+12","1,69038E+12","lexical","weiblich","Deutsch","written","5f8051b402daee04b8108440","64c12e6f86bc0ea1e5011030","64ba4c8d312ce994ea1f9971",7,5559,17,"Critical","yes"
"802",35,60,"","Höherer Abschluss","without",500172,"1,69038E+12","1,69038E+12","functional","weiblich","Deutsch","written","5f8051b402daee04b8108440","64c12e6f86bc0ea1e5011030","64ba4c8d312ce994ea1f9971",7,5658,18,"Critical","yes"
"809",35,60,"","Höherer Abschluss","with",500172,"1,69038E+12","1,69038E+12","lexical","weiblich","Deutsch","written","5f8051b402daee04b8108440","64c12e6f86bc0ea1e5011030","64ba4c8d312ce994ea1f9971",7,3927,25,"Critical","yes"
"810",35,60,"","Höherer Abschluss","without",500172,"1,69038E+12","1,69038E+12","lexical","weiblich","Deutsch","written","5f8051b402daee04b8108440","64c12e6f86bc0ea1e5011030","64ba4c8d312ce994ea1f9971",7,4097,26,"Critical","yes"
"811",35,60,"","Höherer Abschluss","without",500172,"1,69038E+12","1,69038E+12","functional","weiblich","Deutsch","written","5f8051b402daee04b8108440","64c12e6f86bc0ea1e5011030","64ba4c8d312ce994ea1f9971",7,6319,27,"Critical","yes"
"815",35,60,"","Höherer Abschluss","with",500172,"1,69038E+12","1,69038E+12","lexical","weiblich","Deutsch","written","5f8051b402daee04b8108440","64c12e6f86bc0ea1e5011030","64ba4c8d312ce994ea1f9971",7,4463,31,"Critical","yes"
"816",35,60,"","Höherer Abschluss","with",500172,"1,69038E+12","1,69038E+12","functional","weiblich","Deutsch","written","5f8051b402daee04b8108440","64c12e6f86bc0ea1e5011030","64ba4c8d312ce994ea1f9971",7,4611,32,"Critical","yes"
"817",35,60,"","Höherer Abschluss","without",500172,"1,69038E+12","1,69038E+12","lexical","weiblich","Deutsch","written","5f8051b402daee04b8108440","64c12e6f86bc0ea1e5011030","64ba4c8d312ce994ea1f9971",7,3709,33,"Critical","yes"
"818",35,60,"","Höherer Abschluss","without",500172,"1,69038E+12","1,69038E+12","lexical","weiblich","Deutsch","written","5f8051b402daee04b8108440","64c12e6f86bc0ea1e5011030","64ba4c8d312ce994ea1f9971",7,3863,34,"Critical","yes"
"821",35,60,"","Höherer Abschluss","with",500172,"1,69038E+12","1,69038E+12","functional","weiblich","Deutsch","written","5f8051b402daee04b8108440","64c12e6f86bc0ea1e5011030","64ba4c8d312ce994ea1f9971",7,4342,37,"Critical","yes"
"822",35,60,"","Höherer Abschluss","without",500172,"1,69038E+12","1,69038E+12","functional","weiblich","Deutsch","written","5f8051b402daee04b8108440","64c12e6f86bc0ea1e5011030","64ba4c8d312ce994ea1f9971",7,4672,38,"Critical","yes"
"823",35,60,"","Höherer Abschluss","with",500172,"1,69038E+12","1,69038E+12","functional","weiblich","Deutsch","written","5f8051b402daee04b8108440","64c12e6f86bc0ea1e5011030","64ba4c8d312ce994ea1f9971",7,4152,39,"Critical","yes"
"824",35,60,"","Höherer Abschluss","without",500172,"1,69038E+12","1,69038E+12","functional","weiblich","Deutsch","written","5f8051b402daee04b8108440","64c12e6f86bc0ea1e5011030","64ba4c8d312ce994ea1f9971",7,5368,40,"Critical","yes"
"826",35,60,"","Höherer Abschluss","with",500172,"1,69038E+12","1,69038E+12","functional","weiblich","Deutsch","written","5f8051b402daee04b8108440","64c12e6f86bc0ea1e5011030","64ba4c8d312ce994ea1f9971",7,3754,42,"Critical","yes"
"827",35,60,"","Höherer Abschluss","without",500172,"1,69038E+12","1,69038E+12","functional","weiblich","Deutsch","written","5f8051b402daee04b8108440","64c12e6f86bc0ea1e5011030","64ba4c8d312ce994ea1f9971",7,3958,43,"Critical","yes"
"828",35,60,"","Höherer Abschluss","without",500172,"1,69038E+12","1,69038E+12","functional","weiblich","Deutsch","written","5f8051b402daee04b8108440","64c12e6f86bc0ea1e5011030","64ba4c8d312ce994ea1f9971",7,3520,44,"Critical","yes"
"829",35,60,"","Höherer Abschluss","with",500172,"1,69038E+12","1,69038E+12","lexical","weiblich","Deutsch","written","5f8051b402daee04b8108440","64c12e6f86bc0ea1e5011030","64ba4c8d312ce994ea1f9971",7,3682,45,"Critical","yes"
"831",35,60,"","Höherer Abschluss","without",500172,"1,69038E+12","1,69038E+12","lexical","weiblich","Deutsch","written","5f8051b402daee04b8108440","64c12e6f86bc0ea1e5011030","64ba4c8d312ce994ea1f9971",7,4895,47,"Critical","yes"
"832",35,60,"","Höherer Abschluss","with",500172,"1,69038E+12","1,69038E+12","functional","weiblich","Deutsch","written","5f8051b402daee04b8108440","64c12e6f86bc0ea1e5011030","64ba4c8d312ce994ea1f9971",7,3601,48,"Critical","yes"
"834",35,60,"","Höherer Abschluss","with",500172,"1,69038E+12","1,69038E+12","lexical","weiblich","Deutsch","written","5f8051b402daee04b8108440","64c12e6f86bc0ea1e5011030","64ba4c8d312ce994ea1f9971",7,4023,50,"Critical","yes"
"835",35,60,"","Höherer Abschluss","without",500172,"1,69038E+12","1,69038E+12","lexical","weiblich","Deutsch","written","5f8051b402daee04b8108440","64c12e6f86bc0ea1e5011030","64ba4c8d312ce994ea1f9971",7,3464,51,"Critical","yes"
"839",35,60,"","Höherer Abschluss","with",500172,"1,69038E+12","1,69038E+12","functional","weiblich","Deutsch","written","5f8051b402daee04b8108440","64c12e6f86bc0ea1e5011030","64ba4c8d312ce994ea1f9971",7,2975,55,"Critical","yes"
"841",36,52,"","Abitur","without",574633,"1,69038E+12","1,69038E+12","functional","männlich","Deutsch, Französisch","written","5e5832478c2b6f03f9acd234","64c12d408dc13defa1255037","64ba4c8d312ce994ea1f9971",4,12729,1,"Critical","no"
"844",36,52,"","Abitur","with",574633,"1,69038E+12","1,69038E+12","functional","männlich","Deutsch, Französisch","written","5e5832478c2b6f03f9acd234","64c12d408dc13defa1255037","64ba4c8d312ce994ea1f9971",7,12795,4,"Critical","no"
"846",36,52,"","Abitur","with",574633,"1,69038E+12","1,69038E+12","lexical","männlich","Deutsch, Französisch","written","5e5832478c2b6f03f9acd234","64c12d408dc13defa1255037","64ba4c8d312ce994ea1f9971",7,5946,6,"Critical","no"
"847",36,52,"","Abitur","without",574633,"1,69038E+12","1,69038E+12","lexical","männlich","Deutsch, Französisch","written","5e5832478c2b6f03f9acd234","64c12d408dc13defa1255037","64ba4c8d312ce994ea1f9971",7,5976,7,"Critical","no"
"848",36,52,"","Abitur","without",574633,"1,69038E+12","1,69038E+12","functional","männlich","Deutsch, Französisch","written","5e5832478c2b6f03f9acd234","64c12d408dc13defa1255037","64ba4c8d312ce994ea1f9971",7,5614,8,"Critical","no"
"850",36,52,"","Abitur","without",574633,"1,69038E+12","1,69038E+12","lexical","männlich","Deutsch, Französisch","written","5e5832478c2b6f03f9acd234","64c12d408dc13defa1255037","64ba4c8d312ce994ea1f9971",7,6795,10,"Critical","no"
"851",36,52,"","Abitur","without",574633,"1,69038E+12","1,69038E+12","functional","männlich","Deutsch, Französisch","written","5e5832478c2b6f03f9acd234","64c12d408dc13defa1255037","64ba4c8d312ce994ea1f9971",5,6793,11,"Critical","no"
"854",36,52,"","Abitur","without",574633,"1,69038E+12","1,69038E+12","lexical","männlich","Deutsch, Französisch","written","5e5832478c2b6f03f9acd234","64c12d408dc13defa1255037","64ba4c8d312ce994ea1f9971",6,5596,14,"Critical","no"
"855",36,52,"","Abitur","without",574633,"1,69038E+12","1,69038E+12","functional","männlich","Deutsch, Französisch","written","5e5832478c2b6f03f9acd234","64c12d408dc13defa1255037","64ba4c8d312ce994ea1f9971",7,5323,15,"Critical","no"
"856",36,52,"","Abitur","with",574633,"1,69038E+12","1,69038E+12","functional","männlich","Deutsch, Französisch","written","5e5832478c2b6f03f9acd234","64c12d408dc13defa1255037","64ba4c8d312ce994ea1f9971",7,4946,16,"Critical","no"
"860",36,52,"","Abitur","with",574633,"1,69038E+12","1,69038E+12","lexical","männlich","Deutsch, Französisch","written","5e5832478c2b6f03f9acd234","64c12d408dc13defa1255037","64ba4c8d312ce994ea1f9971",7,4796,20,"Critical","no"
"863",36,52,"","Abitur","with",574633,"1,69038E+12","1,69038E+12","functional","männlich","Deutsch, Französisch","written","5e5832478c2b6f03f9acd234","64c12d408dc13defa1255037","64ba4c8d312ce994ea1f9971",7,6212,23,"Critical","no"
